Subject,Set,Trial,TOD,StartTr,RT,LRT,RRT,DRT,Standard,Variable,Choice,Group,LftText,RgtText
6666          09-09-2010    17:19:02,SetA
6666,SetA, 1 ,62114.930,0.000,0.000,  0.000,  1.079,  1.657,   4 , 3 , 2 , 0 ,"$10 in 180 days"," $9.00 now"
6666,SetA, 2 ,62116.980,2.047,0.079,  0.000,  0.750,  1.250,   4 , 17 , 2 , 0 ," $2.00 now","$10 in 180 days"
6666,SetA, 3 ,62118.620,3.688,0.110,  1.095,  0.000,  1.626,   2 , 4 , 1 , 0 ," $8.50 now","$10 in 30 days"
6666,SetA, 4 ,62120.630,5.703,0.110,  1.220,  0.000,  1.813,   3 , 9 , 1 , 0 ," $6.00 now","$10 in 90 days"
6666,SetA, 5 ,62122.840,7.906,0.110,  0.000,  1.720,  2.251,   3 , 19 , 2 , 0 ," $1.00 now","$10 in 90 days"
6666,SetA, 6 ,62125.480,10.547,0.001,  0.000,  1.063,  1.938,   2 , 17 , 2 , 0 ," $2.00 now","$10 in 30 days"
6666,SetA, 7 ,62127.800,12.875,0.110,  0.000,  1.610,  2.204,   4 , 2 , 2 , 0 ,"$10 in 180 days"," $9.50 now"
6666,SetA, 8 ,62130.400,15.469,0.111,  0.000,  4.486,  5.174,   4 , 13 , 2 , 0 ,"$10 in 180 days"," $4.00 now"
6666,SetA, 9 ,62135.960,21.031,0.111,  1.673,  0.000,  2.173,   4 , 1 , 1 , 0 ," $10.00 now","$10 in 180 days"
6666,SetA, 10 ,62138.520,23.594,0.111,  1.736,  0.000,  2.346,   2 , 12 , 1 , 0 ,"$10 in 30 days"," $4.50 now"
6666,SetA, 11 ,0.000,0.000,0.000,  0.000,  0.000,  0.000,   1 , 21 , 0 , 0 ,"$10 in 7 days"," $0.25 now"
6666,SetA, 12 ,0.000,0.000,0.000,  0.000,  0.000,  0.000,   5 , 16 , 0 , 0 ," $2.50 now","$10 in 365 days"
6666,SetA, 13 ,0.000,0.000,0.000,  0.000,  0.000,  0.000,   0 , 13 , 0 , 0 ,"$10 now"," $4.00 now"
6666,SetA, 14 ,62141.260,26.328,0.111,  0.000,  1.673,  2.408,   1 , 19 , 2 , 0 ," $1.00 now","$10 in 7 days"
6666,SetA, 15 ,0.000,0.000,0.000,  0.000,  0.000,  0.000,   5 , 1 , 0 , 0 ," $10.00 now","$10 in 365 days"
6666,SetA, 16 ,0.000,0.000,0.000,  0.000,  0.000,  0.000,   0 , 20 , 0 , 0 ,"$10 now"," $0.50 now"
6666,SetA, 17 ,0.000,0.000,0.000,  0.000,  0.000,  0.000,   0 , 21 , 0 , 0 ,"$10 now"," $0.25 now"
6666,SetA, 18 ,62144.050,29.125,0.064,  1.658,  0.000,  2.189,   2 , 7 , 1 , 0 ," $7.00 now","$10 in 30 days"
6666,SetA, 19 ,62146.640,31.707,-0.002,  1.170,  0.000,  1.873,   3 , 0 , 1 , 0 ," $10.50 now","$10 in 90 days"
6666,SetA, 20 ,0.000,0.000,0.000,  0.000,  0.000,  0.000,   5 , 4 , 0 , 0 ," $8.50 now","$10 in 365 days"
6666,SetA, 21 ,62148.900,33.969,0.112,  0.000,  1.018,  2.002,   2 , 3 , 2 , 0 ,"$10 in 30 days"," $9.00 now"
6666,SetA, 22 ,62151.290,36.359,0.111,  0.846,  0.000,  1.393,   1 , 22 , 1 , 0 ,"$10 in 7 days"," $0.00 now"
6666,SetA, 23 ,0.000,0.000,0.000,  0.000,  0.000,  0.000,   5 , 21 , 0 , 0 ,"$10 in 365 days"," $0.25 now"
6666,SetA, 24 ,0.000,0.000,0.000,  0.000,  0.000,  0.000,   5 , 22 , 0 , 0 ,"$10 in 365 days"," $0.00 now"
6666,SetA, 25 ,62153.070,38.141,0.112,  1.096,  0.000,  1.924,   3 , 1 , 1 , 0 ," $10.00 now","$10 in 90 days"
6666,SetA, 26 ,62155.390,40.457,0.107,  1.389,  0.000,  2.045,   4 , 11 , 1 , 0 ," $5.00 now","$10 in 180 days"
6666,SetA, 27 ,0.000,0.000,0.000,  0.000,  0.000,  0.000,   5 , 9 , 0 , 0 ," $6.00 now","$10 in 365 days"
6666,SetA, 28 ,62157.820,42.891,0.112,  0.000,  1.393,  1.909,   3 , 2 , 2 , 0 ,"$10 in 90 days"," $9.50 now"
6666,SetA, 29 ,62160.120,45.188,0.112,  0.000,  1.674,  2.190,   3 , 6 , 2 , 0 ,"$10 in 90 days"," $7.50 now"
6666,SetA, 30 ,0.000,0.000,0.000,  0.000,  0.000,  0.000,   0 , 6 , 0 , 0 ,"$10 now"," $7.50 now"
6666,SetA, 31 ,62162.700,47.770,0.108,  0.827,  0.000,  1.374,   2 , 22 , 1 , 0 ,"$10 in 30 days"," $0.00 now"
6666,SetA, 32 ,62164.460,49.535,0.108,  1.123,  0.000,  1.577,   0 , 3 , 1 , 0 ,"$10 now"," $9.00 now"
6666,SetA, 33 ,62166.430,51.504,0.108,  0.000,  1.342,  1.951,   1 , 2 , 2 , 0 ,"$10 in 7 days"," $9.50 now"
6666,SetA, 34 ,62168.780,53.848,0.108,  2.515,  0.000,  2.999,   3 , 13 , 1 , 0 ,"$10 in 90 days"," $4.00 now"
6666,SetA, 35 ,62172.170,57.238,0.108,  0.000,  3.421,  4.171,   4 , 15 , 2 , 0 ," $3.00 now","$10 in 180 days"
6666,SetA, 36 ,62176.730,61.801,0.109,  1.046,  0.000,  1.609,   2 , 1 , 1 , 0 ," $10.00 now","$10 in 30 days"
6666,SetA, 37 ,0.000,0.000,0.000,  0.000,  0.000,  0.000,   0 , 14 , 0 , 0 ,"$10 now"," $3.50 now"
6666,SetA, 38 ,0.000,0.000,0.000,  0.000,  0.000,  0.000,   2 , 21 , 0 , 0 ,"$10 in 30 days"," $0.25 now"
6666,SetA, 39 ,62178.730,63.801,0.109,  0.000,  0.812,  1.765,   4 , 19 , 2 , 0 ," $1.00 now","$10 in 180 days"
6666,SetA, 40 ,0.000,0.000,0.000,  0.000,  0.000,  0.000,   0 , 18 , 0 , 0 ,"$10 now"," $1.50 now"
6666,SetA, 41 ,62180.890,65.957,0.108,  0.000,  1.593,  2.218,   1 , 9 , 2 , 0 ," $6.00 now","$10 in 7 days"
6666,SetA, 42 ,0.000,0.000,0.000,  0.000,  0.000,  0.000,   5 , 11 , 0 , 0 ," $5.00 now","$10 in 365 days"
6666,SetA, 43 ,62183.500,68.566,-0.001,  0.000,  1.687,  2.249,   2 , 6 , 2 , 0 ,"$10 in 30 days"," $7.50 now"
6666,SetA, 44 ,62186.140,71.207,0.108,  0.671,  0.000,  1.280,   4 , 18 , 1 , 0 ,"$10 in 180 days"," $1.50 now"
6666,SetA, 45 ,0.000,0.000,0.000,  0.000,  0.000,  0.000,   0 , 12 , 0 , 0 ,"$10 now"," $4.50 now"
6666,SetA, 46 ,0.000,0.000,0.000,  0.000,  0.000,  0.000,   0 , 22 , 0 , 0 ,"$10 now"," $0.00 now"
6666,SetA, 47 ,62187.810,72.879,0.108,  1.280,  0.000,  1.890,   4 , 7 , 1 , 0 ," $7.00 now","$10 in 180 days"
6666,SetA, 48 ,62190.090,75.160,0.109,  0.000,  0.734,  1.249,   1 , 17 , 2 , 0 ," $2.00 now","$10 in 7 days"
6666,SetA, 49 ,62191.730,76.801,0.109,  1.094,  0.000,  1.953,   4 , 0 , 1 , 0 ," $10.50 now","$10 in 180 days"
6666,SetA, 50 ,62194.070,79.145,0.109,  1.187,  0.000,  1.828,   3 , 14 , 1 , 0 ,"$10 in 90 days"," $3.50 now"
6666,SetA, 51 ,62196.290,81.363,0.109,  0.000,  1.015,  1.468,   1 , 15 , 2 , 0 ," $3.00 now","$10 in 7 days"
6666,SetA, 52 ,62198.150,83.223,0.109,  0.000,  1.016,  1.578,   1 , 3 , 2 , 0 ,"$10 in 7 days"," $9.00 now"
6666,SetA, 53 ,62200.120,85.191,0.109,  0.797,  0.000,  1.375,   3 , 22 , 1 , 0 ,"$10 in 90 days"," $0.00 now"
6666,SetA, 54 ,62201.890,86.957,-0.001,  0.000,  0.593,  1.124,   4 , 16 , 2 , 0 ," $2.50 now","$10 in 180 days"
6666,SetA, 55 ,62203.400,88.473,0.109,  1.563,  0.781,  2.047,   4 , 9 , 1 , 0 ," $6.00 now","$10 in 180 days"
6666,SetA, 56 ,62205.840,90.910,0.109,  1.078,  0.000,  1.562,   4 , 5 , 1 , 0 ," $8.00 now","$10 in 180 days"
6666,SetA, 57 ,0.000,0.000,0.000,  0.000,  0.000,  0.000,   5 , 7 , 0 , 0 ," $7.00 now","$10 in 365 days"
6666,SetA, 58 ,0.000,0.000,0.000,  0.000,  0.000,  0.000,   5 , 17 , 0 , 0 ," $2.00 now","$10 in 365 days"
6666,SetA, 59 ,62207.790,92.863,0.109,  1.578,  0.000,  2.297,   4 , 4 , 1 , 0 ," $8.50 now","$10 in 180 days"
6666,SetA, 60 ,0.000,0.000,0.000,  0.000,  0.000,  0.000,   5 , 2 , 0 , 0 ,"$10 in 365 days"," $9.50 now"
6666,SetA, 61 ,62210.480,95.551,0.110,  1.172,  0.000,  1.641,   4 , 20 , 1 , 0 ,"$10 in 180 days"," $0.50 now"
6666,SetA, 62 ,62212.510,97.582,0.109,  0.890,  0.000,  1.469,   2 , 18 , 1 , 0 ,"$10 in 30 days"," $1.50 now"
6666,SetA, 63 ,62214.370,99.441,0.016,  0.000,  1.297,  1.891,   3 , 3 , 2 , 0 ,"$10 in 90 days"," $9.00 now"
6666,SetA, 64 ,62216.650,101.723,0.000,  1.735,  1.016,  2.188,   0 , 2 , 1 , 0 ,"$10 now"," $9.50 now"
6666,SetA, 65 ,0.000,0.000,0.000,  0.000,  0.000,  0.000,   5 , 20 , 0 , 0 ,"$10 in 365 days"," $0.50 now"
6666,SetA, 66 ,62219.230,104.301,0.110,  3.657,  0.000,  4.329,   1 , 4 , 1 , 0 ," $8.50 now","$10 in 7 days"
6666,SetA, 67 ,62223.950,109.020,0.094,  1.110,  0.000,  1.813,   2 , 14 , 1 , 0 ,"$10 in 30 days"," $3.50 now"
6666,SetA, 68 ,62226.150,111.223,0.110,  1.157,  0.000,  1.657,   3 , 18 , 1 , 0 ,"$10 in 90 days"," $1.50 now"
6666,SetA, 69 ,62228.200,113.270,0.110,  1.110,  0.000,  1.657,   3 , 7 , 1 , 0 ," $7.00 now","$10 in 90 days"
6666,SetA, 70 ,62230.250,115.316,0.001,  0.000,  1.204,  2.048,   3 , 17 , 2 , 0 ," $2.00 now","$10 in 90 days"
6666,SetA, 71 ,0.000,0.000,0.000,  0.000,  0.000,  0.000,   5 , 19 , 0 , 0 ," $1.00 now","$10 in 365 days"
6666,SetA, 72 ,62232.680,117.754,0.110,  0.000,  1.532,  2.078,   1 , 11 , 2 , 0 ," $5.00 now","$10 in 7 days"
6666,SetA, 73 ,62235.150,120.223,0.110,  1.267,  0.000,  1.876,   0 , 0 , 1 , 0 ," $10.50 now","$10 now"
6666,SetA, 74 ,62237.420,122.488,0.110,  2.563,  1.345,  3.001,   3 , 5 , 1 , 0 ," $8.00 now","$10 in 90 days"
6666,SetA, 75 ,0.000,0.000,0.000,  0.000,  0.000,  0.000,   5 , 15 , 0 , 0 ," $3.00 now","$10 in 365 days"
6666,SetA, 76 ,62240.810,125.879,0.110,  0.000,  2.282,  2.735,   2 , 10 , 2 , 0 ," $5.50 now","$10 in 30 days"
6666,SetA, 77 ,0.000,0.000,0.000,  0.000,  0.000,  0.000,   0 , 15 , 0 , 0 ," $3.00 now","$10 now"
6666,SetA, 78 ,62243.930,129.004,0.110,  3.469,  2.548,  3.938,   1 , 8 , 1 , 0 ," $6.50 now","$10 in 7 days"
6666,SetA, 79 ,62248.260,133.332,0.110,  0.000,  7.001,  7.548,   4 , 12 , 2 , 0 ,"$10 in 180 days"," $4.50 now"
6666,SetA, 80 ,62256.200,141.270,0.111,  0.752,  0.000,  1.299,   1 , 0 , 1 , 0 ," $10.50 now","$10 in 7 days"
6666,SetA, 81 ,62257.890,142.957,0.111,  3.158,  0.000,  3.658,   1 , 5 , 1 , 0 ," $8.00 now","$10 in 7 days"
6666,SetA, 82 ,0.000,0.000,0.000,  0.000,  0.000,  0.000,   5 , 13 , 0 , 0 ,"$10 in 365 days"," $4.00 now"
6666,SetA, 83 ,0.000,0.000,0.000,  0.000,  0.000,  0.000,   5 , 10 , 0 , 0 ," $5.50 now","$10 in 365 days"
6666,SetA, 84 ,62261.930,147.004,0.111,  2.564,  2.064,  3.048,   3 , 12 , 1 , 0 ,"$10 in 90 days"," $4.50 now"
6666,SetA, 85 ,0.000,0.000,0.000,  0.000,  0.000,  0.000,   5 , 6 , 0 , 0 ,"$10 in 365 days"," $7.50 now"
6666,SetA, 86 ,0.000,0.000,0.000,  0.000,  0.000,  0.000,   5 , 3 , 0 , 0 ,"$10 in 365 days"," $9.00 now"
6666,SetA, 87 ,0.000,0.000,0.000,  0.000,  0.000,  0.000,   0 , 17 , 0 , 0 ," $2.00 now","$10 now"
6666,SetA, 88 ,62265.370,150.441,0.080,  0.861,  0.000,  1.346,   3 , 10 , 1 , 0 ," $5.50 now","$10 in 90 days"
6666,SetA, 89 ,0.000,0.000,0.000,  0.000,  0.000,  0.000,   5 , 0 , 0 , 0 ," $10.50 now","$10 in 365 days"
6666,SetA, 90 ,62267.110,152.176,0.112,  0.000,  0.752,  1.346,   3 , 15 , 2 , 0 ," $3.00 now","$10 in 90 days"
6666,SetA, 91 ,0.000,0.000,0.000,  0.000,  0.000,  0.000,   5 , 14 , 0 , 0 ,"$10 in 365 days"," $3.50 now"
6666,SetA, 92 ,62268.840,153.914,0.107,  0.000,  1.170,  1.701,   1 , 7 , 2 , 0 ," $7.00 now","$10 in 7 days"
6666,SetA, 93 ,62270.930,156.004,0.111,  1.595,  0.000,  2.095,   4 , 22 , 1 , 0 ,"$10 in 180 days"," $0.00 now"
6666,SetA, 94 ,0.000,0.000,0.000,  0.000,  0.000,  0.000,   0 , 4 , 0 , 0 ," $8.50 now","$10 now"
6666,SetA, 95 ,0.000,0.000,0.000,  0.000,  0.000,  0.000,   5 , 18 , 0 , 0 ,"$10 in 365 days"," $1.50 now"
6666,SetA, 96 ,62273.420,158.492,0.107,  0.000,  0.732,  1.217,   2 , 19 , 2 , 0 ," $1.00 now","$10 in 30 days"
6666,SetA, 97 ,0.000,0.000,0.000,  0.000,  0.000,  0.000,   5 , 5 , 0 , 0 ," $8.00 now","$10 in 365 days"
6666,SetA, 98 ,62275.030,160.098,0.112,  0.893,  0.000,  1.456,   2 , 0 , 1 , 0 ," $10.50 now","$10 in 30 days"
6666,SetA, 99 ,62276.870,161.941,0.080,  0.000,  2.252,  2.940,   2 , 11 , 2 , 0 ," $5.00 now","$10 in 30 days"
6666,SetA, 100 ,62280.200,165.270,0.112,  0.924,  0.000,  1.440,   3 , 8 , 1 , 0 ," $6.50 now","$10 in 90 days"
6666,SetA, 101 ,62282.030,167.102,0.108,  0.827,  0.000,  1.374,   1 , 18 , 1 , 0 ,"$10 in 7 days"," $1.50 now"
6666,SetA, 102 ,62283.800,168.867,-0.002,  0.936,  0.000,  1.780,   1 , 14 , 1 , 0 ,"$10 in 7 days"," $3.50 now"
6666,SetA, 103 ,0.000,0.000,0.000,  0.000,  0.000,  0.000,   4 , 21 , 0 , 0 ,"$10 in 180 days"," $0.25 now"
6666,SetA, 104 ,62285.970,171.039,0.108,  0.920,  0.000,  1.436,   1 , 20 , 1 , 0 ,"$10 in 7 days"," $0.50 now"
6666,SetA, 105 ,62287.800,172.867,-0.002,  1.655,  0.000,  2.155,   2 , 8 , 1 , 0 ," $6.50 now","$10 in 30 days"
6666,SetA, 106 ,62290.340,175.414,-0.002,  0.858,  0.000,  1.452,   4 , 8 , 1 , 0 ," $6.50 now","$10 in 180 days"
6666,SetA, 107 ,62292.190,177.258,0.109,  0.921,  0.000,  1.374,   2 , 5 , 1 , 0 ," $8.00 now","$10 in 30 days"
6666,SetA, 108 ,62293.950,179.023,0.108,  1.624,  1.186,  2.124,   2 , 9 , 1 , 0 ," $6.00 now","$10 in 30 days"
6666,SetA, 109 ,62296.470,181.539,0.108,  0.000,  0.686,  1.452,   3 , 16 , 2 , 0 ," $2.50 now","$10 in 90 days"
6666,SetA, 110 ,62298.310,183.383,0.031,  0.671,  0.000,  1.171,   2 , 20 , 1 , 0 ,"$10 in 30 days"," $0.50 now"
6666,SetA, 111 ,62299.880,184.945,0.108,  3.062,  2.515,  3.515,   1 , 10 , 1 , 0 ," $5.50 now","$10 in 7 days"
6666,SetA, 112 ,0.000,0.000,0.000,  0.000,  0.000,  0.000,   0 , 5 , 0 , 0 ," $8.00 now","$10 now"
6666,SetA, 113 ,62303.780,188.852,0.109,  1.406,  0.000,  2.015,   3 , 4 , 1 , 0 ," $8.50 now","$10 in 90 days"
6666,SetA, 114 ,62306.190,191.258,0.109,  1.375,  0.000,  2.000,   1 , 13 , 1 , 0 ,"$10 in 7 days"," $4.00 now"
6666,SetA, 115 ,0.000,0.000,0.000,  0.000,  0.000,  0.000,   0 , 11 , 0 , 0 ," $5.00 now","$10 now"
6666,SetA, 116 ,62308.580,193.648,0.062,  1.640,  0.937,  2.734,   4 , 10 , 1 , 0 ," $5.50 now","$10 in 180 days"
6666,SetA, 117 ,62311.700,196.773,-0.001,  0.859,  0.000,  1.359,   4 , 14 , 1 , 0 ,"$10 in 180 days"," $3.50 now"
6666,SetA, 118 ,0.000,0.000,0.000,  0.000,  0.000,  0.000,   0 , 8 , 0 , 0 ," $6.50 now","$10 now"
6666,SetA, 119 ,62313.450,198.523,0.109,  1.515,  0.000,  2.093,   2 , 13 , 1 , 0 ,"$10 in 30 days"," $4.00 now"
6666,SetA, 120 ,62315.940,201.008,0.109,  0.000,  0.969,  1.609,   2 , 2 , 2 , 0 ,"$10 in 30 days"," $9.50 now"
6666,SetA, 121 ,0.000,0.000,0.000,  0.000,  0.000,  0.000,   3 , 21 , 0 , 0 ,"$10 in 90 days"," $0.25 now"
6666,SetA, 122 ,62317.940,203.008,0.109,  0.000,  1.375,  2.781,   3 , 11 , 2 , 0 ," $5.00 now","$10 in 90 days"
6666,SetA, 123 ,0.000,0.000,0.000,  0.000,  0.000,  0.000,   0 , 7 , 0 , 0 ," $7.00 now","$10 now"
6666,SetA, 124 ,62321.110,206.180,0.109,  0.000,  1.328,  1.844,   2 , 16 , 2 , 0 ," $2.50 now","$10 in 30 days"
6666,SetA, 125 ,0.000,0.000,0.000,  0.000,  0.000,  0.000,   0 , 19 , 0 , 0 ," $1.00 now","$10 now"
6666,SetA, 126 ,62323.340,208.414,0.031,  0.734,  0.000,  1.656,   3 , 20 , 1 , 0 ,"$10 in 90 days"," $0.50 now"
6666,SetA, 127 ,0.000,0.000,0.000,  0.000,  0.000,  0.000,   0 , 10 , 0 , 0 ," $5.50 now","$10 now"
6666,SetA, 128 ,62325.390,210.461,-0.001,  1.203,  0.000,  2.703,   1 , 12 , 1 , 0 ,"$10 in 7 days"," $4.50 now"
6666,SetA, 129 ,62328.480,213.555,0.110,  0.000,  4.641,  5.188,   4 , 6 , 2 , 0 ,"$10 in 180 days"," $7.50 now"
6666,SetA, 130 ,0.000,0.000,0.000,  0.000,  0.000,  0.000,   5 , 12 , 0 , 0 ,"$10 in 365 days"," $4.50 now"
6666,SetA, 131 ,0.000,0.000,0.000,  0.000,  0.000,  0.000,   0 , 1 , 0 , 0 ," $10.00 now","$10 now"
6666,SetA, 132 ,62334.060,219.133,0.110,  1.485,  2.188,  2.672,   1 , 6 , 2 , 0 ,"$10 in 7 days"," $7.50 now"
6666,SetA, 133 ,62337.130,222.195,0.109,  0.000,  0.719,  1.235,   1 , 16 , 2 , 0 ," $2.50 now","$10 in 7 days"
6666,SetA, 134 ,0.000,0.000,0.000,  0.000,  0.000,  0.000,   0 , 9 , 0 , 0 ," $6.00 now","$10 now"
6666,SetA, 135 ,62338.750,223.820,0.110,  1.094,  0.000,  1.578,   1 , 1 , 1 , 0 ," $10.00 now","$10 in 7 days"
6666,SetA, 136 ,62340.720,225.789,0.109,  0.000,  1.031,  1.469,   2 , 15 , 2 , 0 ," $3.00 now","$10 in 30 days"
6666,SetA, 137 ,0.000,0.000,0.000,  0.000,  0.000,  0.000,   5 , 8 , 0 , 0 ," $6.50 now","$10 in 365 days"
6666,SetA, 138 ,0.000,0.000,0.000,  0.000,  0.000,  0.000,   0 , 16 , 0 , 0 ," $2.50 now","$10 now"
Subject,Set,Trial,TOD,StartTr,RT,LRT,RRT,DRT,Standard,Variable,Choice,Group,LftText,RgtText
6666          09-10-2010    14:33:29,SetA
6666,SetA, 1 ,0.000,0.000,0.000,  0.000,  0.000,  0.000,   5 , 13 , 0 , 0 ," $4.00 now","$10 in 365 days"
6666,SetA, 2 ,52222.190,52222.190,0.109,  1.327,  0.000,  2.093,   3 , 19 , 1 , 0 ,"$10 in 90 days"," $1.00 now"
6666,SetA, 3 ,52224.680,52224.680,0.108,  0.000,  1.061,  1.592,   1 , 8 , 2 , 0 ," $6.50 now","$10 in 7 days"
6666,SetA, 4 ,52226.660,52226.660,0.108,  1.749,  0.858,  2.374,   2 , 3 , 1 , 0 ," $9.00 now","$10 in 30 days"
6666,SetA, 5 ,0.000,0.000,0.000,  0.000,  0.000,  0.000,   4 , 21 , 0 , 0 ," $0.25 now","$10 in 180 days"
6666,SetA, 6 ,52229.430,52229.430,-0.001,  2.655,  0.000,  3.186,   4 , 18 , 1 , 0 ,"$10 in 180 days"," $1.50 now"
6666,SetA, 7 ,0.000,0.000,0.000,  0.000,  0.000,  0.000,   5 , 10 , 0 , 0 ," $5.50 now","$10 in 365 days"
6666,SetA, 8 ,52233.000,52233.000,0.108,  1.264,  0.000,  1.764,   4 , 4 , 1 , 0 ," $8.50 now","$10 in 180 days"
6666,SetA, 9 ,0.000,0.000,0.000,  0.000,  0.000,  0.000,   5 , 9 , 0 , 0 ,"$10 in 365 days"," $6.00 now"
6666,SetA, 10 ,52235.160,52235.160,0.108,  0.858,  2.171,  2.671,   3 , 9 , 2 , 0 ,"$10 in 90 days"," $6.00 now"
6666,SetA, 11 ,52238.220,52238.220,0.108,  0.920,  1.498,  1.905,   4 , 7 , 2 , 0 ,"$10 in 180 days"," $7.00 now"
6666,SetA, 12 ,0.000,0.000,0.000,  0.000,  0.000,  0.000,   2 , 21 , 0 , 0 ," $0.25 now","$10 in 30 days"
6666,SetA, 13 ,52240.520,52240.520,-0.002,  0.780,  0.000,  1.295,   2 , 19 , 1 , 0 ,"$10 in 30 days"," $1.00 now"
6666,SetA, 14 ,0.000,0.000,0.000,  0.000,  0.000,  0.000,   0 , 12 , 0 , 0 ,"$10 now"," $4.50 now"
6666,SetA, 15 ,52242.210,52242.210,0.108,  0.000,  0.827,  1.358,   1 , 13 , 2 , 0 ," $4.00 now","$10 in 7 days"
6666,SetA, 16 ,52243.960,52243.960,0.061,  1.077,  0.000,  1.624,   2 , 7 , 1 , 0 ,"$10 in 30 days"," $7.00 now"
6666,SetA, 17 ,0.000,0.000,0.000,  0.000,  0.000,  0.000,   5 , 12 , 0 , 0 ,"$10 in 365 days"," $4.50 now"
6666,SetA, 18 ,0.000,0.000,0.000,  0.000,  0.000,  0.000,   5 , 18 , 0 , 0 ,"$10 in 365 days"," $1.50 now"
6666,SetA, 19 ,0.000,0.000,0.000,  0.000,  0.000,  0.000,   0 , 19 , 0 , 0 ,"$10 now"," $1.00 now"
6666,SetA, 20 ,52245.970,52245.970,0.030,  0.000,  0.576,  1.092,   2 , 4 , 2 , 0 ," $8.50 now","$10 in 30 days"
6666,SetA, 21 ,0.000,0.000,0.000,  0.000,  0.000,  0.000,   5 , 8 , 0 , 0 ," $6.50 now","$10 in 365 days"
6666,SetA, 22 ,52247.460,52247.460,0.030,  0.874,  0.000,  1.624,   4 , 11 , 1 , 0 ,"$10 in 180 days"," $5.00 now"
6666,SetA, 23 ,0.000,0.000,0.000,  0.000,  0.000,  0.000,   5 , 11 , 0 , 0 ,"$10 in 365 days"," $5.00 now"
6666,SetA, 24 ,52249.470,52249.470,0.014,  0.686,  0.000,  1.155,   1 , 11 , 1 , 0 ,"$10 in 7 days"," $5.00 now"
6666,SetA, 25 ,52251.020,52251.020,0.045,  0.326,  0.000,  0.826,   2 , 14 , 1 , 0 ,"$10 in 30 days"," $3.50 now"
6666,SetA, 26 ,52252.240,52252.240,-0.001,  0.000,  1.030,  1.546,   1 , 16 , 2 , 0 ," $2.50 now","$10 in 7 days"
6666,SetA, 27 ,52254.180,52254.180,0.030,  0.000,  0.545,  1.108,   2 , 10 , 2 , 0 ," $5.50 now","$10 in 30 days"
6666,SetA, 28 ,0.000,0.000,0.000,  0.000,  0.000,  0.000,   5 , 2 , 0 , 0 ," $9.50 now","$10 in 365 days"
6666,SetA, 29 ,0.000,0.000,0.000,  0.000,  0.000,  0.000,   0 , 9 , 0 , 0 ,"$10 now"," $6.00 now"
6666,SetA, 30 ,0.000,0.000,0.000,  0.000,  0.000,  0.000,   5 , 1 , 0 , 0 ,"$10 in 365 days"," $10.00 now"
6666,SetA, 31 ,52255.680,52255.680,0.030,  0.000,  0.467,  1.201,   2 , 22 , 2 , 0 ," $0.00 now","$10 in 30 days"
6666,SetA, 32 ,52257.270,52257.270,-0.002,  0.000,  1.154,  1.654,   4 , 15 , 2 , 0 ," $3.00 now","$10 in 180 days"
6666,SetA, 33 ,52259.320,52259.320,0.108,  0.000,  0.999,  1.468,   2 , 17 , 2 , 0 ," $2.00 now","$10 in 30 days"
6666,SetA, 34 ,52261.180,52261.180,0.108,  0.764,  0.000,  1.326,   1 , 19 , 1 , 0 ,"$10 in 7 days"," $1.00 now"
6666,SetA, 35 ,52262.890,52262.890,0.092,  0.404,  0.000,  0.857,   3 , 10 , 1 , 0 ," $5.50 now","$10 in 90 days"
6666,SetA, 36 ,52264.140,52264.140,-0.002,  0.514,  0.000,  1.060,   3 , 0 , 1 , 0 ," $10.50 now","$10 in 90 days"
6666,SetA, 37 ,0.000,0.000,0.000,  0.000,  0.000,  0.000,   5 , 15 , 0 , 0 ," $3.00 now","$10 in 365 days"
6666,SetA, 38 ,0.000,0.000,0.000,  0.000,  0.000,  0.000,   5 , 17 , 0 , 0 ," $2.00 now","$10 in 365 days"
6666,SetA, 39 ,0.000,0.000,0.000,  0.000,  0.000,  0.000,   5 , 16 , 0 , 0 ," $2.50 now","$10 in 365 days"
6666,SetA, 40 ,52265.600,52265.600,-0.002,  0.000,  1.014,  1.686,   2 , 20 , 2 , 0 ," $0.50 now","$10 in 30 days"
6666,SetA, 41 ,52267.680,52267.680,0.014,  0.000,  1.436,  1.826,   1 , 6 , 2 , 0 ," $7.50 now","$10 in 7 days"
6666,SetA, 42 ,52269.890,52269.890,-0.002,  0.873,  0.000,  1.607,   1 , 12 , 1 , 0 ,"$10 in 7 days"," $4.50 now"
6666,SetA, 43 ,0.000,0.000,0.000,  0.000,  0.000,  0.000,   0 , 18 , 0 , 0 ,"$10 now"," $1.50 now"
6666,SetA, 44 ,52271.890,52271.890,0.107,  1.201,  0.000,  1.685,   3 , 3 , 1 , 0 ," $9.00 now","$10 in 90 days"
6666,SetA, 45 ,52273.970,52273.970,-0.002,  0.639,  0.000,  1.217,   1 , 0 , 1 , 0 ," $10.50 now","$10 in 7 days"
6666,SetA, 46 ,52275.580,52275.580,0.002,  0.768,  1.502,  1.909,   2 , 1 , 2 , 0 ,"$10 in 30 days"," $10.00 now"
6666,SetA, 47 ,0.000,0.000,0.000,  0.000,  0.000,  0.000,   0 , 11 , 0 , 0 ,"$10 now"," $5.00 now"
6666,SetA, 48 ,52277.880,52277.880,0.014,  1.483,  0.608,  1.983,   4 , 0 , 1 , 0 ," $10.50 now","$10 in 180 days"
6666,SetA, 49 ,0.000,0.000,0.000,  0.000,  0.000,  0.000,   5 , 19 , 0 , 0 ,"$10 in 365 days"," $1.00 now"
6666,SetA, 50 ,0.000,0.000,0.000,  0.000,  0.000,  0.000,   0 , 1 , 0 , 0 ,"$10 now"," $10.00 now"
6666,SetA, 51 ,52280.250,52280.250,-0.002,  1.404,  0.000,  1.842,   2 , 11 , 1 , 0 ,"$10 in 30 days"," $5.00 now"
6666,SetA, 52 ,52282.480,52282.480,0.112,  1.127,  0.000,  1.549,   4 , 3 , 1 , 0 ," $9.00 now","$10 in 180 days"
6666,SetA, 53 ,52284.430,52284.430,-0.002,  0.920,  1.264,  2.639,   3 , 5 , 1 , 0 ," $8.00 now","$10 in 90 days"
6666,SetA, 54 ,52287.450,52287.450,0.018,  1.737,  0.000,  3.080,   3 , 8 , 1 , 0 ," $6.50 now","$10 in 90 days"
6666,SetA, 55 ,0.000,0.000,0.000,  0.000,  0.000,  0.000,   5 , 0 , 0 , 0 ," $10.50 now","$10 in 365 days"
6666,SetA, 56 ,52290.930,52290.930,0.107,  0.000,  0.998,  1.529,   3 , 16 , 2 , 0 ," $2.50 now","$10 in 90 days"
6666,SetA, 57 ,0.000,0.000,0.000,  0.000,  0.000,  0.000,   5 , 7 , 0 , 0 ,"$10 in 365 days"," $7.00 now"
6666,SetA, 58 ,52292.850,52292.850,0.091,  0.000,  0.732,  1.529,   2 , 16 , 2 , 0 ," $2.50 now","$10 in 30 days"
6666,SetA, 59 ,52294.770,52294.770,-0.002,  0.000,  0.732,  1.357,   2 , 13 , 2 , 0 ," $4.00 now","$10 in 30 days"
6666,SetA, 60 ,52296.520,52296.520,0.107,  2.060,  1.060,  2.498,   2 , 2 , 1 , 0 ," $9.50 now","$10 in 30 days"
6666,SetA, 61 ,52299.410,52299.410,0.002,  0.000,  1.440,  2.502,   3 , 20 , 2 , 0 ," $0.50 now","$10 in 90 days"
6666,SetA, 62 ,0.000,0.000,0.000,  0.000,  0.000,  0.000,   5 , 3 , 0 , 0 ," $9.00 now","$10 in 365 days"
6666,SetA, 63 ,52302.300,52302.300,0.107,  2.076,  0.000,  4.154,   3 , 18 , 1 , 0 ,"$10 in 90 days"," $1.50 now"
6666,SetA, 64 ,52306.850,52306.850,0.060,  0.000,  1.482,  2.341,   4 , 10 , 2 , 0 ," $5.50 now","$10 in 180 days"
6666,SetA, 65 ,52309.580,52309.580,0.111,  0.783,  0.000,  1.596,   3 , 14 , 1 , 0 ,"$10 in 90 days"," $3.50 now"
6666,SetA, 66 ,52311.560,52311.560,0.112,  0.000,  1.205,  1.783,   4 , 17 , 2 , 0 ," $2.00 now","$10 in 180 days"
6666,SetA, 67 ,0.000,0.000,0.000,  0.000,  0.000,  0.000,   0 , 14 , 0 , 0 ,"$10 now"," $3.50 now"
6666,SetA, 68 ,52313.730,52313.730,0.002,  0.000,  0.627,  1.252,   1 , 10 , 2 , 0 ," $5.50 now","$10 in 7 days"
6666,SetA, 69 ,52315.380,52315.380,-0.002,  0.000,  2.466,  3.263,   1 , 5 , 2 , 0 ," $8.00 now","$10 in 7 days"
6666,SetA, 70 ,0.000,0.000,0.000,  0.000,  0.000,  0.000,   5 , 6 , 0 , 0 ," $7.50 now","$10 in 365 days"
6666,SetA, 71 ,52319.030,52319.030,0.111,  0.000,  1.627,  2.236,   3 , 22 , 2 , 0 ," $0.00 now","$10 in 90 days"
6666,SetA, 72 ,0.000,0.000,0.000,  0.000,  0.000,  0.000,   5 , 4 , 0 , 0 ," $8.50 now","$10 in 365 days"
6666,SetA, 73 ,0.000,0.000,0.000,  0.000,  0.000,  0.000,   0 , 7 , 0 , 0 ,"$10 now"," $7.00 now"
6666,SetA, 74 ,52321.660,52321.660,0.111,  0.000,  0.783,  1.330,   4 , 2 , 2 , 0 ," $9.50 now","$10 in 180 days"
6666,SetA, 75 ,52323.390,52323.390,0.001,  0.000,  1.017,  1.736,   4 , 22 , 2 , 0 ," $0.00 now","$10 in 180 days"
6666,SetA, 76 ,52325.520,52325.520,0.111,  0.000,  0.673,  1.361,   4 , 20 , 2 , 0 ," $0.50 now","$10 in 180 days"
6666,SetA, 77 ,0.000,0.000,0.000,  0.000,  0.000,  0.000,   0 , 17 , 0 , 0 ," $2.00 now","$10 now"
6666,SetA, 78 ,0.000,0.000,0.000,  0.000,  0.000,  0.000,   0 , 16 , 0 , 0 ," $2.50 now","$10 now"
6666,SetA, 79 ,0.000,0.000,0.000,  0.000,  0.000,  0.000,   5 , 20 , 0 , 0 ," $0.50 now","$10 in 365 days"
6666,SetA, 80 ,52327.270,52327.270,0.111,  0.000,  0.642,  1.220,   3 , 2 , 2 , 0 ," $9.50 now","$10 in 90 days"
6666,SetA, 81 ,52328.880,52328.880,0.107,  0.857,  0.000,  1.294,   1 , 18 , 1 , 0 ,"$10 in 7 days"," $1.50 now"
6666,SetA, 82 ,52330.560,52330.560,0.111,  0.000,  0.643,  1.533,   1 , 17 , 2 , 0 ," $2.00 now","$10 in 7 days"
6666,SetA, 83 ,52332.480,52332.480,0.111,  1.486,  0.877,  1.986,   4 , 13 , 1 , 0 ," $4.00 now","$10 in 180 days"
6666,SetA, 84 ,52334.860,52334.860,0.002,  0.767,  0.000,  1.580,   4 , 12 , 1 , 0 ,"$10 in 180 days"," $4.50 now"
6666,SetA, 85 ,0.000,0.000,0.000,  0.000,  0.000,  0.000,   5 , 5 , 0 , 0 ," $8.00 now","$10 in 365 days"
6666,SetA, 86 ,52336.830,52336.830,0.111,  0.000,  0.673,  1.111,   1 , 20 , 2 , 0 ," $0.50 now","$10 in 7 days"
6666,SetA, 87 ,52338.330,52338.330,0.002,  1.814,  0.548,  2.251,   2 , 0 , 1 , 0 ," $10.50 now","$10 in 30 days"
6666,SetA, 88 ,52340.970,52340.970,0.110,  0.000,  0.642,  1.282,   1 , 22 , 2 , 0 ," $0.00 now","$10 in 7 days"
6666,SetA, 89 ,52342.640,52342.640,0.001,  0.595,  1.751,  2.173,   1 , 2 , 2 , 0 ," $9.50 now","$10 in 7 days"
6666,SetA, 90 ,0.000,0.000,0.000,  0.000,  0.000,  0.000,   0 , 5 , 0 , 0 ," $8.00 now","$10 now"
6666,SetA, 91 ,52345.200,52345.200,0.017,  1.173,  0.000,  1.970,   2 , 12 , 1 , 0 ,"$10 in 30 days"," $4.50 now"
6666,SetA, 92 ,52347.560,52347.560,0.002,  0.000,  0.627,  1.596,   1 , 1 , 2 , 0 ,"$10 in 7 days"," $10.00 now"
6666,SetA, 93 ,52349.550,52349.550,0.111,  0.000,  0.564,  1.173,   0 , 3 , 2 , 0 ," $9.00 now","$10 now"
6666,SetA, 94 ,52351.110,52351.110,0.048,  1.455,  0.000,  2.048,   2 , 5 , 1 , 0 ," $8.00 now","$10 in 30 days"
6666,SetA, 95 ,0.000,0.000,0.000,  0.000,  0.000,  0.000,   0 , 15 , 0 , 0 ," $3.00 now","$10 now"
6666,SetA, 96 ,52353.550,52353.550,0.001,  0.000,  0.860,  1.345,   0 , 2 , 2 , 0 ," $9.50 now","$10 now"
6666,SetA, 97 ,0.000,0.000,0.000,  0.000,  0.000,  0.000,   0 , 4 , 0 , 0 ," $8.50 now","$10 now"
6666,SetA, 98 ,52355.280,52355.280,0.017,  3.267,  0.000,  3.720,   3 , 4 , 1 , 0 ," $8.50 now","$10 in 90 days"
6666,SetA, 99 ,0.000,0.000,0.000,  0.000,  0.000,  0.000,   0 , 13 , 0 , 0 ," $4.00 now","$10 now"
6666,SetA, 100 ,52359.390,52359.390,0.110,  0.000,  1.126,  1.563,   3 , 17 , 2 , 0 ," $2.00 now","$10 in 90 days"
6666,SetA, 101 ,52361.340,52361.340,0.110,  1.438,  0.829,  1.860,   4 , 6 , 1 , 0 ," $7.50 now","$10 in 180 days"
6666,SetA, 102 ,52363.590,52363.590,0.110,  1.095,  0.000,  1.579,   1 , 7 , 1 , 0 ,"$10 in 7 days"," $7.00 now"
6666,SetA, 103 ,52365.560,52365.560,0.111,  0.000,  1.548,  2.158,   3 , 15 , 2 , 0 ," $3.00 now","$10 in 90 days"
6666,SetA, 104 ,0.000,0.000,0.000,  0.000,  0.000,  0.000,   5 , 22 , 0 , 0 ," $0.00 now","$10 in 365 days"
6666,SetA, 105 ,52368.110,52368.110,0.064,  1.048,  0.000,  1.611,   2 , 18 , 1 , 0 ,"$10 in 30 days"," $1.50 now"
6666,SetA, 106 ,0.000,0.000,0.000,  0.000,  0.000,  0.000,   5 , 21 , 0 , 0 ," $0.25 now","$10 in 365 days"
6666,SetA, 107 ,0.000,0.000,0.000,  0.000,  0.000,  0.000,   0 , 10 , 0 , 0 ," $5.50 now","$10 now"
6666,SetA, 108 ,52370.110,52370.110,0.079,  0.000,  1.439,  1.970,   2 , 15 , 2 , 0 ," $3.00 now","$10 in 30 days"
6666,SetA, 109 ,0.000,0.000,0.000,  0.000,  0.000,  0.000,   0 , 20 , 0 , 0 ," $0.50 now","$10 now"
6666,SetA, 110 ,52372.470,52372.470,0.110,  0.000,  0.782,  1.532,   3 , 6 , 2 , 0 ," $7.50 now","$10 in 90 days"
6666,SetA, 111 ,52374.390,52374.390,0.110,  0.954,  0.000,  1.547,   4 , 19 , 1 , 0 ,"$10 in 180 days"," $1.00 now"
6666,SetA, 112 ,52376.330,52376.330,0.110,  0.767,  0.000,  1.345,   1 , 15 , 1 , 0 ," $3.00 now","$10 in 7 days"
6666,SetA, 113 ,52378.060,52378.060,0.001,  0.000,  0.392,  0.814,   4 , 9 , 2 , 0 ,"$10 in 180 days"," $6.00 now"
6666,SetA, 114 ,52379.270,52379.270,0.047,  0.454,  0.000,  1.360,   4 , 16 , 1 , 0 ," $2.50 now","$10 in 180 days"
6666,SetA, 115 ,52381.020,52381.020,0.000,  0.000,  0.563,  1.125,   2 , 9 , 2 , 0 ,"$10 in 30 days"," $6.00 now"
6666,SetA, 116 ,52382.530,52382.530,0.001,  0.704,  0.000,  1.360,   0 , 0 , 1 , 0 ," $10.50 now","$10 now"
6666,SetA, 117 ,52384.280,52384.280,0.001,  0.000,  0.517,  1.689,   1 , 9 , 2 , 0 ,"$10 in 7 days"," $6.00 now"
6666,SetA, 118 ,52386.360,52386.360,0.001,  0.423,  0.000,  1.361,   3 , 12 , 1 , 0 ,"$10 in 90 days"," $4.50 now"
6666,SetA, 119 ,52388.110,52388.110,0.001,  0.000,  0.704,  1.439,   3 , 7 , 2 , 0 ,"$10 in 90 days"," $7.00 now"
6666,SetA, 120 ,52389.940,52389.940,0.001,  0.501,  0.000,  1.329,   1 , 14 , 1 , 0 ,"$10 in 7 days"," $3.50 now"
6666,SetA, 121 ,0.000,0.000,0.000,  0.000,  0.000,  0.000,   3 , 21 , 0 , 0 ," $0.25 now","$10 in 90 days"
6666,SetA, 122 ,52391.660,52391.660,0.032,  0.000,  0.860,  1.923,   1 , 4 , 2 , 0 ," $8.50 now","$10 in 7 days"
6666,SetA, 123 ,0.000,0.000,0.000,  0.000,  0.000,  0.000,   0 , 21 , 0 , 0 ," $0.25 now","$10 now"
6666,SetA, 124 ,0.000,0.000,0.000,  0.000,  0.000,  0.000,   0 , 6 , 0 , 0 ," $7.50 now","$10 now"
6666,SetA, 125 ,52393.970,52393.970,0.016,  0.391,  0.000,  1.079,   4 , 8 , 1 , 0 ," $6.50 now","$10 in 180 days"
6666,SetA, 126 ,52395.440,52395.440,0.032,  0.423,  0.000,  1.064,   1 , 3 , 1 , 0 ," $9.00 now","$10 in 7 days"
6666,SetA, 127 ,52396.890,52396.890,0.016,  0.750,  0.000,  1.297,   4 , 14 , 1 , 0 ,"$10 in 180 days"," $3.50 now"
6666,SetA, 128 ,52398.580,52398.580,0.048,  0.532,  0.000,  1.360,   3 , 11 , 1 , 0 ,"$10 in 90 days"," $5.00 now"
6666,SetA, 129 ,0.000,0.000,0.000,  0.000,  0.000,  0.000,   0 , 8 , 0 , 0 ," $6.50 now","$10 now"
6666,SetA, 130 ,0.000,0.000,0.000,  0.000,  0.000,  0.000,   1 , 21 , 0 , 0 ," $0.25 now","$10 in 7 days"
6666,SetA, 131 ,0.000,0.000,0.000,  0.000,  0.000,  0.000,   5 , 14 , 0 , 0 ,"$10 in 365 days"," $3.50 now"
6666,SetA, 132 ,52400.330,52400.330,0.110,  0.641,  0.000,  1.329,   2 , 6 , 1 , 0 ," $7.50 now","$10 in 30 days"
6666,SetA, 133 ,52402.050,52402.050,0.110,  0.000,  0.704,  1.250,   3 , 13 , 2 , 0 ," $4.00 now","$10 in 90 days"
6666,SetA, 134 ,52403.690,52403.690,0.032,  0.000,  0.407,  0.970,   4 , 5 , 2 , 0 ," $8.00 now","$10 in 180 days"
6666,SetA, 135 ,52405.050,52405.050,0.016,  0.000,  0.391,  1.063,   4 , 1 , 2 , 0 ,"$10 in 180 days"," $10.00 now"
6666,SetA, 136 ,52406.500,52406.500,0.001,  0.000,  0.454,  1.219,   3 , 1 , 2 , 0 ,"$10 in 90 days"," $10.00 now"
6666,SetA, 137 ,0.000,0.000,0.000,  0.000,  0.000,  0.000,   0 , 22 , 0 , 0 ," $0.00 now","$10 now"
6666,SetA, 138 ,52408.110,52408.110,0.095,  0.000,  0.610,  1.220,   2 , 8 , 2 , 0 ," $6.50 now","$10 in 30 days"
