Subject,Set,Trial,TOD,StartTr,RT,LRT,RRT,DRT,Standard,Variable,Choice,Group,LftText,RgtText
8036_1_Y2     12-02-2014    14:43:34,SetA
8036_1_Y2,SetA, 1 ,52730.250,0.000,0.202,  0.000,  9.796,  16.457,   2 , 18 , 2 , 0 ,"$10 in 30 days"," $1.50 now"
8036_1_Y2,SetA, 2 ,52747.100,16.848,-0.001,  7.206,  0.000,  10.233,   1 , 5 , 1 , 0 ," $8.00 now","$10 in 7 days"
8036_1_Y2,SetA, 3 ,52757.720,27.473,0.653,  1.386,  0.000,  5.770,   1 , 11 , 1 , 0 ," $5.00 now","$10 in 7 days"
8036_1_Y2,SetA, 4 ,52763.880,33.633,0.046,  6.084,  0.000,  7.815,   3 , 11 , 1 , 0 ," $5.00 now","$10 in 90 days"
8036_1_Y2,SetA, 5 ,52772.090,41.840,2.104,  4.569,  0.000,  6.145,   1 , 8 , 1 , 0 ," $6.50 now","$10 in 7 days"
8036_1_Y2,SetA, 6 ,52778.630,48.375,0.187,  0.000,  2.745,  4.149,   4 , 18 , 2 , 0 ,"$10 in 180 days"," $1.50 now"
8036_1_Y2,SetA, 7 ,52783.160,52.914,0.515,  3.058,  0.000,  4.555,   4 , 16 , 1 , 0 ," $2.50 now","$10 in 180 days"
8036_1_Y2,SetA, 8 ,52788.110,57.859,0.000,  0.999,  0.000,  2.075,   4 , 2 , 1 , 0 ," $9.50 now","$10 in 180 days"
8036_1_Y2,SetA, 9 ,52790.570,60.324,0.000,  0.000,  1.155,  2.091,   2 , 13 , 2 , 0 ,"$10 in 30 days"," $4.00 now"
8036_1_Y2,SetA, 10 ,0.000,0.000,0.000,  0.000,  0.000,  0.000,   0 , 21 , 0 , 0 ,"$10 now"," $0.25 now"
8036_1_Y2,SetA, 11 ,52793.050,62.805,0.374,  0.858,  0.000,  2.901,   2 , 8 , 1 , 0 ," $6.50 now","$10 in 30 days"
8036_1_Y2,SetA, 12 ,0.000,0.000,0.000,  0.000,  0.000,  0.000,   5 , 21 , 0 , 0 ,"$10 in 365 days"," $0.25 now"
8036_1_Y2,SetA, 13 ,52796.350,66.098,0.279,  0.000,  1.059,  1.964,   2 , 3 , 2 , 0 ,"$10 in 30 days"," $9.00 now"
8036_1_Y2,SetA, 14 ,52798.700,68.453,0.311,  0.000,  0.982,  1.840,   1 , 1 , 2 , 0 ,"$10 in 7 days"," $10.00 now"
8036_1_Y2,SetA, 15 ,0.000,0.000,0.000,  0.000,  0.000,  0.000,   5 , 18 , 0 , 0 ,"$10 in 365 days"," $1.50 now"
8036_1_Y2,SetA, 16 ,52800.930,70.684,0.373,  0.000,  1.044,  1.949,   2 , 17 , 2 , 0 ,"$10 in 30 days"," $2.00 now"
8036_1_Y2,SetA, 17 ,52803.270,73.023,0.000,  1.045,  0.000,  3.088,   3 , 4 , 1 , 0 ," $8.50 now","$10 in 90 days"
8036_1_Y2,SetA, 18 ,0.000,0.000,0.000,  0.000,  0.000,  0.000,   5 , 4 , 0 , 0 ," $8.50 now","$10 in 365 days"
8036_1_Y2,SetA, 19 ,52806.750,76.500,0.204,  4.557,  0.000,  5.695,   1 , 22 , 1 , 0 ,"$10 in 7 days"," $0.00 now"
8036_1_Y2,SetA, 20 ,0.000,0.000,0.000,  0.000,  0.000,  0.000,   0 , 22 , 0 , 0 ,"$10 now"," $0.00 now"
8036_1_Y2,SetA, 21 ,0.000,0.000,0.000,  0.000,  0.000,  0.000,   5 , 7 , 0 , 0 ," $7.00 now","$10 in 365 days"
8036_1_Y2,SetA, 22 ,0.000,0.000,0.000,  0.000,  0.000,  0.000,   5 , 22 , 0 , 0 ,"$10 in 365 days"," $0.00 now"
8036_1_Y2,SetA, 23 ,52812.840,82.586,0.187,  1.450,  0.000,  2.449,   4 , 4 , 1 , 0 ," $8.50 now","$10 in 180 days"
8036_1_Y2,SetA, 24 ,52815.680,85.426,0.326,  1.325,  0.000,  2.151,   4 , 0 , 1 , 0 ," $10.50 now","$10 in 180 days"
8036_1_Y2,SetA, 25 ,52818.220,87.969,0.201,  0.934,  0.000,  1.902,   4 , 8 , 1 , 0 ," $6.50 now","$10 in 180 days"
8036_1_Y2,SetA, 26 ,52820.510,90.262,0.716,  2.604,  0.000,  3.587,   1 , 12 , 1 , 0 ," $4.50 now","$10 in 7 days"
8036_1_Y2,SetA, 27 ,0.000,0.000,0.000,  0.000,  0.000,  0.000,   5 , 12 , 0 , 0 ," $4.50 now","$10 in 365 days"
8036_1_Y2,SetA, 28 ,52824.490,94.238,0.952,  0.000,  1.358,  1.997,   3 , 13 , 2 , 0 ,"$10 in 90 days"," $4.00 now"
8036_1_Y2,SetA, 29 ,0.000,0.000,0.000,  0.000,  0.000,  0.000,   0 , 17 , 0 , 0 ,"$10 now"," $2.00 now"
8036_1_Y2,SetA, 30 ,0.000,0.000,0.000,  0.000,  0.000,  0.000,   0 , 13 , 0 , 0 ,"$10 now"," $4.00 now"
8036_1_Y2,SetA, 31 ,52826.890,96.641,0.359,  0.000,  0.827,  1.716,   1 , 3 , 2 , 0 ,"$10 in 7 days"," $9.00 now"
8036_1_Y2,SetA, 32 ,0.000,0.000,0.000,  0.000,  0.000,  0.000,   0 , 15 , 0 , 0 ,"$10 now"," $3.00 now"
8036_1_Y2,SetA, 33 ,52829.000,98.746,0.266,  0.000,  3.558,  5.102,   2 , 20 , 2 , 0 ," $0.50 now","$10 in 30 days"
8036_1_Y2,SetA, 34 ,52834.490,104.238,0.000,  1.311,  0.000,  2.059,   3 , 14 , 1 , 0 ," $3.50 now","$10 in 90 days"
8036_1_Y2,SetA, 35 ,52836.940,106.688,0.063,  0.000,  1.857,  3.027,   3 , 17 , 2 , 0 ,"$10 in 90 days"," $2.00 now"
8036_1_Y2,SetA, 36 ,52840.360,110.106,0.217,  0.810,  0.000,  1.512,   4 , 12 , 1 , 0 ," $4.50 now","$10 in 180 days"
8036_1_Y2,SetA, 37 ,52842.260,112.008,0.763,  1.871,  0.000,  2.667,   3 , 2 , 1 , 0 ," $9.50 now","$10 in 90 days"
8036_1_Y2,SetA, 38 ,0.000,0.000,0.000,  0.000,  0.000,  0.000,   0 , 18 , 0 , 0 ,"$10 now"," $1.50 now"
8036_1_Y2,SetA, 39 ,52845.320,115.066,0.170,  0.000,  1.247,  2.198,   3 , 9 , 2 , 0 ," $6.00 now","$10 in 90 days"
8036_1_Y2,SetA, 40 ,52847.900,117.652,0.065,  0.000,  0.751,  1.609,   4 , 1 , 2 , 0 ,"$10 in 180 days"," $10.00 now"
8036_1_Y2,SetA, 41 ,52849.900,119.652,-0.001,  1.855,  0.000,  2.495,   2 , 11 , 1 , 0 ," $5.00 now","$10 in 30 days"
8036_1_Y2,SetA, 42 ,0.000,0.000,0.000,  0.000,  0.000,  0.000,   0 , 1 , 0 , 0 ,"$10 now"," $10.00 now"
8036_1_Y2,SetA, 43 ,0.000,0.000,0.000,  0.000,  0.000,  0.000,   4 , 21 , 0 , 0 ,"$10 in 180 days"," $0.25 now"
8036_1_Y2,SetA, 44 ,0.000,0.000,0.000,  0.000,  0.000,  0.000,   1 , 21 , 0 , 0 ,"$10 in 7 days"," $0.25 now"
8036_1_Y2,SetA, 45 ,52852.790,122.535,0.158,  0.642,  0.000,  1.390,   4 , 6 , 1 , 0 ," $7.50 now","$10 in 180 days"
8036_1_Y2,SetA, 46 ,52854.570,124.316,0.265,  0.000,  1.107,  1.871,   2 , 15 , 2 , 0 ,"$10 in 30 days"," $3.00 now"
8036_1_Y2,SetA, 47 ,0.000,0.000,0.000,  0.000,  0.000,  0.000,   5 , 8 , 0 , 0 ," $6.50 now","$10 in 365 days"
8036_1_Y2,SetA, 48 ,52856.830,126.578,0.140,  0.873,  0.000,  1.544,   3 , 5 , 1 , 0 ," $8.00 now","$10 in 90 days"
8036_1_Y2,SetA, 49 ,52858.760,128.512,0.047,  5.382,  0.000,  6.240,   0 , 3 , 1 , 0 ,"$10 now"," $9.00 now"
8036_1_Y2,SetA, 50 ,0.000,0.000,0.000,  0.000,  0.000,  0.000,   5 , 14 , 0 , 0 ," $3.50 now","$10 in 365 days"
8036_1_Y2,SetA, 51 ,52865.390,135.141,0.110,  1.140,  0.000,  1.795,   1 , 16 , 1 , 0 ," $2.50 now","$10 in 7 days"
8036_1_Y2,SetA, 52 ,52867.570,137.324,0.470,  0.000,  1.219,  1.889,   1 , 15 , 2 , 0 ,"$10 in 7 days"," $3.00 now"
8036_1_Y2,SetA, 53 ,52869.850,139.602,0.563,  1.125,  0.000,  2.638,   3 , 16 , 1 , 0 ," $2.50 now","$10 in 90 days"
8036_1_Y2,SetA, 54 ,52872.880,142.629,0.188,  1.030,  0.000,  1.764,   2 , 16 , 1 , 0 ," $2.50 now","$10 in 30 days"
8036_1_Y2,SetA, 55 ,52875.030,144.781,0.017,  1.078,  0.000,  1.796,   3 , 6 , 1 , 0 ," $7.50 now","$10 in 90 days"
8036_1_Y2,SetA, 56 ,52877.220,146.969,-0.002,  0.980,  0.000,  2.026,   3 , 7 , 1 , 0 ," $7.00 now","$10 in 90 days"
8036_1_Y2,SetA, 57 ,52879.640,149.387,-0.002,  1.558,  0.000,  2.306,   1 , 6 , 1 , 0 ," $7.50 now","$10 in 7 days"
8036_1_Y2,SetA, 58 ,0.000,0.000,0.000,  0.000,  0.000,  0.000,   5 , 17 , 0 , 0 ,"$10 in 365 days"," $2.00 now"
8036_1_Y2,SetA, 59 ,52882.330,152.082,0.001,  0.000,  1.936,  2.716,   3 , 10 , 2 , 0 ," $5.50 now","$10 in 90 days"
8036_1_Y2,SetA, 60 ,0.000,0.000,0.000,  0.000,  0.000,  0.000,   5 , 5 , 0 , 0 ," $8.00 now","$10 in 365 days"
8036_1_Y2,SetA, 61 ,52885.440,155.188,0.001,  0.000,  1.062,  1.732,   2 , 1 , 2 , 0 ,"$10 in 30 days"," $10.00 now"
8036_1_Y2,SetA, 62 ,52887.560,157.309,0.047,  1.046,  0.000,  1.685,   3 , 8 , 1 , 0 ," $6.50 now","$10 in 90 days"
8036_1_Y2,SetA, 63 ,52889.630,159.383,0.126,  1.031,  0.000,  1.686,   2 , 0 , 1 , 0 ," $10.50 now","$10 in 30 days"
8036_1_Y2,SetA, 64 ,52891.710,161.461,-0.002,  0.747,  0.000,  1.449,   1 , 2 , 1 , 0 ," $9.50 now","$10 in 7 days"
8036_1_Y2,SetA, 65 ,52893.550,163.301,0.046,  2.573,  0.000,  3.275,   1 , 4 , 1 , 0 ," $8.50 now","$10 in 7 days"
8036_1_Y2,SetA, 66 ,52897.210,166.965,0.016,  0.000,  1.296,  2.029,   2 , 14 , 2 , 0 ," $3.50 now","$10 in 30 days"
8036_1_Y2,SetA, 67 ,52899.630,169.383,0.001,  1.686,  0.000,  2.902,   1 , 10 , 1 , 0 ," $5.50 now","$10 in 7 days"
8036_1_Y2,SetA, 68 ,0.000,0.000,0.000,  0.000,  0.000,  0.000,   0 , 9 , 0 , 0 ," $6.00 now","$10 now"
8036_1_Y2,SetA, 69 ,52902.930,172.676,0.093,  3.260,  0.000,  4.102,   4 , 22 , 1 , 0 ,"$10 in 180 days"," $0.00 now"
8036_1_Y2,SetA, 70 ,52907.420,177.168,0.000,  2.543,  0.000,  3.276,   2 , 9 , 1 , 0 ," $6.00 now","$10 in 30 days"
8036_1_Y2,SetA, 71 ,0.000,0.000,0.000,  0.000,  0.000,  0.000,   5 , 13 , 0 , 0 ,"$10 in 365 days"," $4.00 now"
8036_1_Y2,SetA, 72 ,52911.090,180.836,0.061,  0.000,  1.012,  1.699,   1 , 17 , 2 , 0 ,"$10 in 7 days"," $2.00 now"
8036_1_Y2,SetA, 73 ,52913.180,182.926,-0.001,  0.669,  0.000,  1.325,   3 , 19 , 1 , 0 ," $1.00 now","$10 in 90 days"
8036_1_Y2,SetA, 74 ,52914.890,184.641,0.000,  0.000,  1.794,  3.853,   4 , 15 , 2 , 0 ,"$10 in 180 days"," $3.00 now"
8036_1_Y2,SetA, 75 ,52919.130,188.883,0.001,  1.327,  0.000,  1.998,   2 , 5 , 1 , 0 ," $8.00 now","$10 in 30 days"
8036_1_Y2,SetA, 76 ,52921.520,191.270,0.094,  0.000,  0.983,  2.871,   2 , 6 , 2 , 0 ," $7.50 now","$10 in 30 days"
8036_1_Y2,SetA, 77 ,52924.780,194.531,0.000,  0.000,  1.685,  2.402,   1 , 14 , 2 , 0 ," $3.50 now","$10 in 7 days"
8036_1_Y2,SetA, 78 ,52927.570,197.324,-0.001,  0.779,  0.000,  1.544,   1 , 9 , 1 , 0 ," $6.00 now","$10 in 7 days"
8036_1_Y2,SetA, 79 ,0.000,0.000,0.000,  0.000,  0.000,  0.000,   0 , 14 , 0 , 0 ," $3.50 now","$10 now"
8036_1_Y2,SetA, 80 ,0.000,0.000,0.000,  0.000,  0.000,  0.000,   0 , 19 , 0 , 0 ," $1.00 now","$10 now"
8036_1_Y2,SetA, 81 ,0.000,0.000,0.000,  0.000,  0.000,  0.000,   2 , 21 , 0 , 0 ,"$10 in 30 days"," $0.25 now"
8036_1_Y2,SetA, 82 ,52929.510,199.258,0.000,  0.000,  0.967,  1.700,   4 , 3 , 2 , 0 ,"$10 in 180 days"," $9.00 now"
8036_1_Y2,SetA, 83 ,0.000,0.000,0.000,  0.000,  0.000,  0.000,   5 , 0 , 0 , 0 ," $10.50 now","$10 in 365 days"
8036_1_Y2,SetA, 84 ,52931.600,201.348,0.000,  1.560,  0.000,  2.403,   0 , 0 , 1 , 0 ," $10.50 now","$10 now"
8036_1_Y2,SetA, 85 ,0.000,0.000,0.000,  0.000,  0.000,  0.000,   5 , 16 , 0 , 0 ," $2.50 now","$10 in 365 days"
8036_1_Y2,SetA, 86 ,52934.390,204.141,0.187,  1.341,  0.000,  2.043,   4 , 14 , 1 , 0 ," $3.50 now","$10 in 180 days"
8036_1_Y2,SetA, 87 ,52936.820,206.574,0.094,  0.000,  1.155,  2.059,   4 , 17 , 2 , 0 ,"$10 in 180 days"," $2.00 now"
8036_1_Y2,SetA, 88 ,52939.270,209.023,0.125,  1.373,  0.000,  2.044,   3 , 22 , 1 , 0 ,"$10 in 90 days"," $0.00 now"
8036_1_Y2,SetA, 89 ,52941.710,211.457,0.000,  0.000,  1.279,  2.122,   1 , 18 , 2 , 0 ,"$10 in 7 days"," $1.50 now"
8036_1_Y2,SetA, 90 ,52944.220,213.969,0.156,  0.000,  0.951,  1.622,   3 , 15 , 2 , 0 ,"$10 in 90 days"," $3.00 now"
8036_1_Y2,SetA, 91 ,0.000,0.000,0.000,  0.000,  0.000,  0.000,   5 , 10 , 0 , 0 ," $5.50 now","$10 in 365 days"
8036_1_Y2,SetA, 92 ,0.000,0.000,0.000,  0.000,  0.000,  0.000,   0 , 16 , 0 , 0 ," $2.50 now","$10 now"
8036_1_Y2,SetA, 93 ,0.000,0.000,0.000,  0.000,  0.000,  0.000,   3 , 21 , 0 , 0 ,"$10 in 90 days"," $0.25 now"
8036_1_Y2,SetA, 94 ,52946.230,215.981,0.079,  0.000,  0.734,  1.374,   4 , 13 , 2 , 0 ,"$10 in 180 days"," $4.00 now"
8036_1_Y2,SetA, 95 ,0.000,0.000,0.000,  0.000,  0.000,  0.000,   0 , 20 , 0 , 0 ," $0.50 now","$10 now"
8036_1_Y2,SetA, 96 ,0.000,0.000,0.000,  0.000,  0.000,  0.000,   5 , 20 , 0 , 0 ," $0.50 now","$10 in 365 days"
8036_1_Y2,SetA, 97 ,52947.990,217.742,0.002,  1.031,  0.000,  1.640,   4 , 19 , 1 , 0 ," $1.00 now","$10 in 180 days"
8036_1_Y2,SetA, 98 ,52950.020,219.773,0.358,  0.000,  2.230,  3.119,   3 , 1 , 2 , 0 ,"$10 in 90 days"," $10.00 now"
8036_1_Y2,SetA, 99 ,0.000,0.000,0.000,  0.000,  0.000,  0.000,   5 , 9 , 0 , 0 ," $6.00 now","$10 in 365 days"
8036_1_Y2,SetA, 100 ,52953.530,223.281,0.063,  0.000,  0.750,  1.420,   1 , 7 , 2 , 0 ," $7.00 now","$10 in 7 days"
8036_1_Y2,SetA, 101 ,52955.340,225.090,0.001,  0.969,  0.000,  1.608,   4 , 7 , 1 , 0 ," $7.00 now","$10 in 180 days"
8036_1_Y2,SetA, 102 ,0.000,0.000,0.000,  0.000,  0.000,  0.000,   5 , 11 , 0 , 0 ," $5.00 now","$10 in 365 days"
8036_1_Y2,SetA, 103 ,52957.340,227.090,-0.002,  1.293,  0.000,  2.369,   1 , 0 , 1 , 0 ," $10.50 now","$10 in 7 days"
8036_1_Y2,SetA, 104 ,52960.100,229.848,0.001,  0.000,  1.296,  1.905,   1 , 13 , 2 , 0 ,"$10 in 7 days"," $4.00 now"
8036_1_Y2,SetA, 105 ,52962.390,232.145,0.013,  0.980,  0.000,  2.057,   2 , 19 , 1 , 0 ," $1.00 now","$10 in 30 days"
8036_1_Y2,SetA, 106 ,0.000,0.000,0.000,  0.000,  0.000,  0.000,   0 , 7 , 0 , 0 ," $7.00 now","$10 now"
8036_1_Y2,SetA, 107 ,52964.840,234.594,0.247,  1.324,  0.000,  2.073,   4 , 20 , 1 , 0 ," $0.50 now","$10 in 180 days"
8036_1_Y2,SetA, 108 ,0.000,0.000,0.000,  0.000,  0.000,  0.000,   0 , 10 , 0 , 0 ," $5.50 now","$10 now"
8036_1_Y2,SetA, 109 ,52967.310,237.059,0.247,  0.949,  0.000,  1.589,   2 , 2 , 1 , 0 ," $9.50 now","$10 in 30 days"
8036_1_Y2,SetA, 110 ,52969.290,239.039,0.732,  1.169,  0.000,  1.918,   4 , 5 , 1 , 0 ," $8.00 now","$10 in 180 days"
8036_1_Y2,SetA, 111 ,0.000,0.000,0.000,  0.000,  0.000,  0.000,   0 , 6 , 0 , 0 ," $7.50 now","$10 now"
8036_1_Y2,SetA, 112 ,0.000,0.000,0.000,  0.000,  0.000,  0.000,   0 , 12 , 0 , 0 ," $4.50 now","$10 now"
8036_1_Y2,SetA, 113 ,52971.600,241.348,0.155,  1.808,  0.000,  2.401,   3 , 18 , 1 , 0 ,"$10 in 90 days"," $1.50 now"
8036_1_Y2,SetA, 114 ,0.000,0.000,0.000,  0.000,  0.000,  0.000,   0 , 5 , 0 , 0 ," $8.00 now","$10 now"
8036_1_Y2,SetA, 115 ,52974.390,244.141,0.357,  0.950,  0.000,  1.792,   4 , 10 , 1 , 0 ," $5.50 now","$10 in 180 days"
8036_1_Y2,SetA, 116 ,52976.570,246.324,0.015,  1.247,  0.000,  1.855,   4 , 11 , 1 , 0 ," $5.00 now","$10 in 180 days"
8036_1_Y2,SetA, 117 ,0.000,0.000,0.000,  0.000,  0.000,  0.000,   5 , 1 , 0 , 0 ,"$10 in 365 days"," $10.00 now"
8036_1_Y2,SetA, 118 ,52978.820,248.570,0.015,  1.247,  0.000,  1.825,   3 , 0 , 1 , 0 ," $10.50 now","$10 in 90 days"
8036_1_Y2,SetA, 119 ,52981.040,250.785,0.592,  1.294,  0.000,  1.950,   3 , 12 , 1 , 0 ," $4.50 now","$10 in 90 days"
8036_1_Y2,SetA, 120 ,0.000,0.000,0.000,  0.000,  0.000,  0.000,   5 , 3 , 0 , 0 ,"$10 in 365 days"," $9.00 now"
8036_1_Y2,SetA, 121 ,52983.380,253.125,0.436,  1.123,  0.000,  2.340,   3 , 20 , 1 , 0 ," $0.50 now","$10 in 90 days"
8036_1_Y2,SetA, 122 ,0.000,0.000,0.000,  0.000,  0.000,  0.000,   5 , 2 , 0 , 0 ," $9.50 now","$10 in 365 days"
8036_1_Y2,SetA, 123 ,0.000,0.000,0.000,  0.000,  0.000,  0.000,   0 , 4 , 0 , 0 ," $8.50 now","$10 now"
8036_1_Y2,SetA, 124 ,0.000,0.000,0.000,  0.000,  0.000,  0.000,   0 , 11 , 0 , 0 ," $5.00 now","$10 now"
8036_1_Y2,SetA, 125 ,52986.110,255.856,0.202,  1.435,  0.000,  3.307,   2 , 22 , 1 , 0 ,"$10 in 30 days"," $0.00 now"
8036_1_Y2,SetA, 126 ,52989.800,259.551,0.001,  0.000,  2.138,  3.760,   1 , 20 , 2 , 0 ," $0.50 now","$10 in 7 days"
8036_1_Y2,SetA, 127 ,0.000,0.000,0.000,  0.000,  0.000,  0.000,   0 , 8 , 0 , 0 ," $6.50 now","$10 now"
8036_1_Y2,SetA, 128 ,52993.950,263.699,0.002,  0.000,  0.907,  1.609,   3 , 3 , 2 , 0 ,"$10 in 90 days"," $9.00 now"
8036_1_Y2,SetA, 129 ,52995.950,265.699,-0.001,  1.107,  0.000,  1.918,   2 , 10 , 1 , 0 ," $5.50 now","$10 in 30 days"
8036_1_Y2,SetA, 130 ,0.000,0.000,0.000,  0.000,  0.000,  0.000,   5 , 6 , 0 , 0 ," $7.50 now","$10 in 365 days"
8036_1_Y2,SetA, 131 ,52998.260,268.008,0.155,  0.000,  1.590,  2.339,   2 , 7 , 2 , 0 ," $7.00 now","$10 in 30 days"
8036_1_Y2,SetA, 132 ,53000.990,270.738,-0.001,  0.654,  0.000,  1.387,   2 , 12 , 1 , 0 ," $4.50 now","$10 in 30 days"
8036_1_Y2,SetA, 133 ,53002.770,272.516,-0.001,  0.795,  0.000,  1.388,   4 , 9 , 1 , 0 ," $6.00 now","$10 in 180 days"
8036_1_Y2,SetA, 134 ,0.000,0.000,0.000,  0.000,  0.000,  0.000,   5 , 15 , 0 , 0 ,"$10 in 365 days"," $3.00 now"
8036_1_Y2,SetA, 135 ,53004.540,274.293,0.001,  0.000,  2.653,  5.024,   0 , 2 , 2 , 0 ," $9.50 now","$10 now"
8036_1_Y2,SetA, 136 ,53009.960,279.707,0.062,  0.000,  1.264,  2.324,   1 , 19 , 2 , 0 ," $1.00 now","$10 in 7 days"
8036_1_Y2,SetA, 137 ,53012.670,282.422,0.202,  0.000,  1.045,  1.715,   2 , 4 , 2 , 0 ," $8.50 now","$10 in 30 days"
8036_1_Y2,SetA, 138 ,0.000,0.000,0.000,  0.000,  0.000,  0.000,   5 , 19 , 0 , 0 ," $1.00 now","$10 in 365 days"
