Subject,Set,Trial,TOD,StartTr,RT,LRT,RRT,DRT,Standard,Variable,Choice,Group,LftText,RgtText
8230_1_Y1     02-03-2014    16:35:53,SetA
8230_1_Y1,SetA, 1 ,59438.830,0.000,-0.001,  33.592,  31.748,  37.936,   3 , 11 , 2 , 0 ," $5.00 now","$10 in 90 days"
8230_1_Y1,SetA, 2 ,59477.160,38.324,0.112,  0.000,  3.815,  5.111,   4 , 19 , 2 , 0 ," $1.00 now","$10 in 180 days"
8230_1_Y1,SetA, 3 ,0.000,0.000,0.000,  0.000,  0.000,  0.000,   0 , 21 , 0 , 0 ,"$10 now"," $0.25 now"
8230_1_Y1,SetA, 4 ,59482.660,43.824,0.111,  0.000,  5.143,  6.393,   1 , 15 , 2 , 0 ," $3.00 now","$10 in 7 days"
8230_1_Y1,SetA, 5 ,0.000,0.000,0.000,  0.000,  0.000,  0.000,   5 , 20 , 0 , 0 ," $0.50 now","$10 in 365 days"
8230_1_Y1,SetA, 6 ,59489.440,50.605,0.112,  0.000,  2.674,  3.924,   4 , 4 , 2 , 0 ," $8.50 now","$10 in 180 days"
8230_1_Y1,SetA, 7 ,59493.750,54.922,0.107,  0.000,  3.138,  4.529,   1 , 19 , 2 , 0 ," $1.00 now","$10 in 7 days"
8230_1_Y1,SetA, 8 ,0.000,0.000,0.000,  0.000,  0.000,  0.000,   0 , 13 , 0 , 0 ,"$10 now"," $4.00 now"
8230_1_Y1,SetA, 9 ,59498.670,59.840,0.111,  0.000,  3.345,  4.548,   2 , 11 , 2 , 0 ," $5.00 now","$10 in 30 days"
8230_1_Y1,SetA, 10 ,59503.610,64.777,0.096,  0.000,  2.642,  3.642,   1 , 20 , 2 , 0 ," $0.50 now","$10 in 7 days"
8230_1_Y1,SetA, 11 ,0.000,0.000,0.000,  0.000,  0.000,  0.000,   2 , 21 , 0 , 0 ,"$10 in 30 days"," $0.25 now"
8230_1_Y1,SetA, 12 ,59507.640,68.809,0.017,  3.626,  0.000,  4.735,   4 , 16 , 1 , 0 ,"$10 in 180 days"," $2.50 now"
8230_1_Y1,SetA, 13 ,0.000,0.000,0.000,  0.000,  0.000,  0.000,   5 , 18 , 0 , 0 ,"$10 in 365 days"," $1.50 now"
8230_1_Y1,SetA, 14 ,59512.770,73.934,0.079,  0.000,  3.048,  4.079,   3 , 10 , 2 , 0 ," $5.50 now","$10 in 90 days"
8230_1_Y1,SetA, 15 ,0.000,0.000,0.000,  0.000,  0.000,  0.000,   5 , 16 , 0 , 0 ,"$10 in 365 days"," $2.50 now"
8230_1_Y1,SetA, 16 ,59517.230,78.402,0.048,  0.000,  7.533,  8.579,   3 , 12 , 2 , 0 ," $4.50 now","$10 in 90 days"
8230_1_Y1,SetA, 17 ,59526.200,87.371,0.032,  0.000,  3.907,  5.063,   3 , 5 , 2 , 0 ," $8.00 now","$10 in 90 days"
8230_1_Y1,SetA, 18 ,0.000,0.000,0.000,  0.000,  0.000,  0.000,   1 , 21 , 0 , 0 ,"$10 in 7 days"," $0.25 now"
8230_1_Y1,SetA, 19 ,0.000,0.000,0.000,  0.000,  0.000,  0.000,   5 , 0 , 0 , 0 ," $10.50 now","$10 in 365 days"
8230_1_Y1,SetA, 20 ,59531.660,92.824,0.001,  1.939,  0.000,  2.907,   2 , 18 , 1 , 0 ,"$10 in 30 days"," $1.50 now"
8230_1_Y1,SetA, 21 ,59534.950,96.121,0.110,  0.000,  2.454,  3.298,   4 , 22 , 2 , 0 ," $0.00 now","$10 in 180 days"
8230_1_Y1,SetA, 22 ,59538.640,99.809,0.110,  0.000,  2.063,  3.500,   3 , 4 , 2 , 0 ," $8.50 now","$10 in 90 days"
8230_1_Y1,SetA, 23 ,59542.530,103.699,0.110,  0.000,  2.173,  3.016,   4 , 17 , 2 , 0 ," $2.00 now","$10 in 180 days"
8230_1_Y1,SetA, 24 ,0.000,0.000,0.000,  0.000,  0.000,  0.000,   5 , 11 , 0 , 0 ," $5.00 now","$10 in 365 days"
8230_1_Y1,SetA, 25 ,59545.940,107.106,0.001,  0.000,  2.220,  3.032,   2 , 15 , 2 , 0 ," $3.00 now","$10 in 30 days"
8230_1_Y1,SetA, 26 ,59549.360,110.527,0.001,  0.000,  2.141,  3.141,   4 , 10 , 2 , 0 ," $5.50 now","$10 in 180 days"
8230_1_Y1,SetA, 27 ,59552.890,114.059,0.016,  0.000,  2.313,  3.016,   1 , 14 , 2 , 0 ," $3.50 now","$10 in 7 days"
8230_1_Y1,SetA, 28 ,59556.300,117.465,0.078,  0.000,  1.203,  2.031,   3 , 17 , 2 , 0 ," $2.00 now","$10 in 90 days"
8230_1_Y1,SetA, 29 ,59558.720,119.887,0.000,  0.000,  3.375,  3.984,   4 , 3 , 2 , 0 ," $9.00 now","$10 in 180 days"
8230_1_Y1,SetA, 30 ,59563.090,124.262,0.063,  0.000,  3.047,  3.922,   2 , 17 , 2 , 0 ," $2.00 now","$10 in 30 days"
8230_1_Y1,SetA, 31 ,59567.410,128.574,0.000,  1.547,  0.000,  2.329,   1 , 8 , 1 , 0 ,"$10 in 7 days"," $6.50 now"
8230_1_Y1,SetA, 32 ,0.000,0.000,0.000,  0.000,  0.000,  0.000,   0 , 16 , 0 , 0 ,"$10 now"," $2.50 now"
8230_1_Y1,SetA, 33 ,59570.130,131.293,0.016,  0.000,  0.641,  1.234,   2 , 2 , 2 , 0 ," $9.50 now","$10 in 30 days"
8230_1_Y1,SetA, 34 ,59571.750,132.918,0.016,  1.422,  0.000,  2.031,   2 , 16 , 1 , 0 ,"$10 in 30 days"," $2.50 now"
8230_1_Y1,SetA, 35 ,59574.170,135.340,0.109,  0.000,  0.687,  1.344,   2 , 19 , 2 , 0 ," $1.00 now","$10 in 30 days"
8230_1_Y1,SetA, 36 ,59575.910,137.074,0.000,  0.610,  0.000,  1.188,   4 , 1 , 1 , 0 ,"$10 in 180 days"," $10.00 now"
8230_1_Y1,SetA, 37 ,59577.480,138.652,0.000,  0.000,  1.282,  1.891,   2 , 0 , 2 , 0 ," $10.50 now","$10 in 30 days"
8230_1_Y1,SetA, 38 ,0.000,0.000,0.000,  0.000,  0.000,  0.000,   5 , 4 , 0 , 0 ," $8.50 now","$10 in 365 days"
8230_1_Y1,SetA, 39 ,59579.770,140.934,0.000,  0.000,  1.687,  2.359,   4 , 5 , 2 , 0 ," $8.00 now","$10 in 180 days"
8230_1_Y1,SetA, 40 ,59582.520,143.684,0.109,  1.562,  0.000,  2.109,   4 , 13 , 1 , 0 ,"$10 in 180 days"," $4.00 now"
8230_1_Y1,SetA, 41 ,59585.020,146.184,0.062,  0.000,  0.968,  1.703,   1 , 22 , 2 , 0 ," $0.00 now","$10 in 7 days"
8230_1_Y1,SetA, 42 ,0.000,0.000,0.000,  0.000,  0.000,  0.000,   5 , 10 , 0 , 0 ," $5.50 now","$10 in 365 days"
8230_1_Y1,SetA, 43 ,59587.110,148.277,0.110,  0.000,  1.781,  2.969,   1 , 12 , 2 , 0 ," $4.50 now","$10 in 7 days"
8230_1_Y1,SetA, 44 ,0.000,0.000,0.000,  0.000,  0.000,  0.000,   5 , 17 , 0 , 0 ," $2.00 now","$10 in 365 days"
8230_1_Y1,SetA, 45 ,59590.470,151.637,0.109,  0.000,  1.656,  2.499,   3 , 9 , 2 , 0 ," $6.00 now","$10 in 90 days"
8230_1_Y1,SetA, 46 ,59593.360,154.527,0.000,  0.000,  1.750,  2.500,   3 , 15 , 2 , 0 ," $3.00 now","$10 in 90 days"
8230_1_Y1,SetA, 47 ,0.000,0.000,0.000,  0.000,  0.000,  0.000,   5 , 9 , 0 , 0 ," $6.00 now","$10 in 365 days"
8230_1_Y1,SetA, 48 ,59596.250,157.418,0.109,  0.000,  2.625,  3.234,   1 , 2 , 2 , 0 ," $9.50 now","$10 in 7 days"
8230_1_Y1,SetA, 49 ,59599.880,161.043,0.109,  0.000,  1.046,  1.687,   2 , 10 , 2 , 0 ," $5.50 now","$10 in 30 days"
8230_1_Y1,SetA, 50 ,0.000,0.000,0.000,  0.000,  0.000,  0.000,   0 , 18 , 0 , 0 ,"$10 now"," $1.50 now"
8230_1_Y1,SetA, 51 ,59601.950,163.121,0.015,  0.000,  1.140,  2.093,   2 , 4 , 2 , 0 ," $8.50 now","$10 in 30 days"
8230_1_Y1,SetA, 52 ,0.000,0.000,0.000,  0.000,  0.000,  0.000,   5 , 2 , 0 , 0 ," $9.50 now","$10 in 365 days"
8230_1_Y1,SetA, 53 ,0.000,0.000,0.000,  0.000,  0.000,  0.000,   5 , 14 , 0 , 0 ," $3.50 now","$10 in 365 days"
8230_1_Y1,SetA, 54 ,59604.440,165.606,0.109,  1.344,  0.000,  1.859,   1 , 13 , 1 , 0 ,"$10 in 7 days"," $4.00 now"
8230_1_Y1,SetA, 55 ,0.000,0.000,0.000,  0.000,  0.000,  0.000,   5 , 7 , 0 , 0 ," $7.00 now","$10 in 365 days"
8230_1_Y1,SetA, 56 ,59606.690,167.856,0.109,  0.000,  2.906,  3.469,   3 , 1 , 2 , 0 ,"$10 in 90 days"," $10.00 now"
8230_1_Y1,SetA, 57 ,0.000,0.000,0.000,  0.000,  0.000,  0.000,   0 , 1 , 0 , 0 ,"$10 now"," $10.00 now"
8230_1_Y1,SetA, 58 ,59610.550,171.715,0.015,  0.000,  1.390,  2.062,   2 , 14 , 2 , 0 ," $3.50 now","$10 in 30 days"
8230_1_Y1,SetA, 59 ,59613.000,174.168,0.015,  1.234,  0.000,  1.921,   3 , 13 , 1 , 0 ,"$10 in 90 days"," $4.00 now"
8230_1_Y1,SetA, 60 ,59615.310,176.481,0.109,  0.000,  2.750,  3.297,   3 , 6 , 2 , 0 ," $7.50 now","$10 in 90 days"
8230_1_Y1,SetA, 61 ,0.000,0.000,0.000,  0.000,  0.000,  0.000,   0 , 8 , 0 , 0 ,"$10 now"," $6.50 now"
8230_1_Y1,SetA, 62 ,59619.000,180.168,0.062,  0.000,  1.577,  2.280,   4 , 2 , 2 , 0 ," $9.50 now","$10 in 180 days"
8230_1_Y1,SetA, 63 ,0.000,0.000,0.000,  0.000,  0.000,  0.000,   5 , 19 , 0 , 0 ," $1.00 now","$10 in 365 days"
8230_1_Y1,SetA, 64 ,0.000,0.000,0.000,  0.000,  0.000,  0.000,   0 , 17 , 0 , 0 ," $2.00 now","$10 now"
8230_1_Y1,SetA, 65 ,0.000,0.000,0.000,  0.000,  0.000,  0.000,   3 , 21 , 0 , 0 ,"$10 in 90 days"," $0.25 now"
8230_1_Y1,SetA, 66 ,59621.670,182.840,0.108,  0.000,  0.921,  1.593,   1 , 1 , 2 , 0 ,"$10 in 7 days"," $10.00 now"
8230_1_Y1,SetA, 67 ,59623.660,184.824,-0.001,  1.781,  0.000,  2.406,   1 , 0 , 1 , 0 ," $10.50 now","$10 in 7 days"
8230_1_Y1,SetA, 68 ,59626.450,187.621,0.109,  1.046,  0.000,  1.609,   1 , 16 , 1 , 0 ,"$10 in 7 days"," $2.50 now"
8230_1_Y1,SetA, 69 ,0.000,0.000,0.000,  0.000,  0.000,  0.000,   5 , 1 , 0 , 0 ,"$10 in 365 days"," $10.00 now"
8230_1_Y1,SetA, 70 ,59628.450,189.621,0.062,  0.000,  1.640,  2.374,   2 , 20 , 2 , 0 ," $0.50 now","$10 in 30 days"
8230_1_Y1,SetA, 71 ,59631.220,192.387,0.108,  0.000,  3.342,  3.889,   3 , 22 , 2 , 0 ," $0.00 now","$10 in 90 days"
8230_1_Y1,SetA, 72 ,0.000,0.000,0.000,  0.000,  0.000,  0.000,   5 , 5 , 0 , 0 ," $8.00 now","$10 in 365 days"
8230_1_Y1,SetA, 73 ,59635.500,196.668,-0.001,  0.000,  4.702,  5.233,   3 , 3 , 2 , 0 ," $9.00 now","$10 in 90 days"
8230_1_Y1,SetA, 74 ,59641.130,202.293,0.108,  0.000,  1.827,  2.436,   0 , 2 , 2 , 0 ," $9.50 now","$10 now"
8230_1_Y1,SetA, 75 ,59643.950,205.121,0.108,  0.000,  1.499,  2.030,   2 , 3 , 2 , 0 ," $9.00 now","$10 in 30 days"
8230_1_Y1,SetA, 76 ,59646.380,207.543,0.108,  0.000,  4.717,  5.155,   2 , 5 , 2 , 0 ," $8.00 now","$10 in 30 days"
8230_1_Y1,SetA, 77 ,59651.920,213.090,0.014,  0.000,  1.030,  1.498,   3 , 19 , 2 , 0 ," $1.00 now","$10 in 90 days"
8230_1_Y1,SetA, 78 ,59653.810,214.981,0.093,  0.000,  0.999,  1.421,   1 , 9 , 2 , 0 ," $6.00 now","$10 in 7 days"
8230_1_Y1,SetA, 79 ,59655.620,216.789,0.002,  0.000,  1.018,  1.393,   4 , 11 , 2 , 0 ," $5.00 now","$10 in 180 days"
8230_1_Y1,SetA, 80 ,59657.410,218.574,-0.001,  0.000,  0.842,  1.296,   3 , 7 , 2 , 0 ," $7.00 now","$10 in 90 days"
8230_1_Y1,SetA, 81 ,0.000,0.000,0.000,  0.000,  0.000,  0.000,   0 , 19 , 0 , 0 ," $1.00 now","$10 now"
8230_1_Y1,SetA, 82 ,0.000,0.000,0.000,  0.000,  0.000,  0.000,   5 , 13 , 0 , 0 ,"$10 in 365 days"," $4.00 now"
8230_1_Y1,SetA, 83 ,59659.090,220.262,-0.002,  0.000,  1.217,  1.654,   1 , 7 , 2 , 0 ," $7.00 now","$10 in 7 days"
8230_1_Y1,SetA, 84 ,59661.140,222.309,0.092,  0.000,  0.982,  1.404,   4 , 14 , 2 , 0 ," $3.50 now","$10 in 180 days"
8230_1_Y1,SetA, 85 ,59662.940,224.106,0.093,  0.000,  0.968,  1.499,   1 , 3 , 2 , 0 ," $9.00 now","$10 in 7 days"
8230_1_Y1,SetA, 86 ,59664.820,225.992,0.002,  0.000,  0.971,  1.456,   1 , 10 , 2 , 0 ," $5.50 now","$10 in 7 days"
8230_1_Y1,SetA, 87 ,59666.670,227.840,-0.002,  2.998,  0.000,  3.498,   1 , 18 , 1 , 0 ,"$10 in 7 days"," $1.50 now"
8230_1_Y1,SetA, 88 ,59670.560,231.731,-0.002,  0.000,  6.530,  7.077,   4 , 9 , 2 , 0 ," $6.00 now","$10 in 180 days"
8230_1_Y1,SetA, 89 ,59678.030,239.195,0.112,  1.065,  0.000,  1.502,   3 , 8 , 1 , 0 ,"$10 in 90 days"," $6.50 now"
8230_1_Y1,SetA, 90 ,0.000,0.000,0.000,  0.000,  0.000,  0.000,   0 , 14 , 0 , 0 ," $3.50 now","$10 now"
8230_1_Y1,SetA, 91 ,0.000,0.000,0.000,  0.000,  0.000,  0.000,   0 , 10 , 0 , 0 ," $5.50 now","$10 now"
8230_1_Y1,SetA, 92 ,0.000,0.000,0.000,  0.000,  0.000,  0.000,   0 , 11 , 0 , 0 ," $5.00 now","$10 now"
8230_1_Y1,SetA, 93 ,59679.920,241.090,0.092,  0.000,  0.857,  1.326,   2 , 9 , 2 , 0 ," $6.00 now","$10 in 30 days"
8230_1_Y1,SetA, 94 ,59681.640,242.809,0.107,  0.669,  0.000,  1.154,   2 , 8 , 1 , 0 ,"$10 in 30 days"," $6.50 now"
8230_1_Y1,SetA, 95 ,59683.180,244.352,0.111,  0.000,  0.923,  1.439,   4 , 20 , 2 , 0 ," $0.50 now","$10 in 180 days"
8230_1_Y1,SetA, 96 ,59685.020,246.184,0.013,  0.701,  1.373,  2.107,   1 , 6 , 2 , 0 ," $7.50 now","$10 in 7 days"
8230_1_Y1,SetA, 97 ,59687.510,248.680,0.017,  0.000,  1.080,  1.533,   1 , 4 , 2 , 0 ," $8.50 now","$10 in 7 days"
8230_1_Y1,SetA, 98 ,59689.430,250.602,0.001,  1.548,  0.000,  2.783,   4 , 0 , 1 , 0 ," $10.50 now","$10 in 180 days"
8230_1_Y1,SetA, 99 ,0.000,0.000,0.000,  0.000,  0.000,  0.000,   0 , 5 , 0 , 0 ," $8.00 now","$10 now"
8230_1_Y1,SetA, 100 ,59692.610,253.773,0.018,  0.000,  2.408,  3.330,   1 , 11 , 2 , 0 ," $5.00 now","$10 in 7 days"
8230_1_Y1,SetA, 101 ,59696.320,257.492,0.111,  0.000,  2.064,  2.549,   4 , 6 , 2 , 0 ," $7.50 now","$10 in 180 days"
8230_1_Y1,SetA, 102 ,0.000,0.000,0.000,  0.000,  0.000,  0.000,   5 , 12 , 0 , 0 ," $4.50 now","$10 in 365 days"
8230_1_Y1,SetA, 103 ,59699.260,260.430,0.017,  0.000,  1.579,  1.986,   4 , 12 , 2 , 0 ," $4.50 now","$10 in 180 days"
8230_1_Y1,SetA, 104 ,0.000,0.000,0.000,  0.000,  0.000,  0.000,   5 , 3 , 0 , 0 ," $9.00 now","$10 in 365 days"
8230_1_Y1,SetA, 105 ,59701.640,262.805,0.111,  1.095,  0.000,  1.579,   3 , 18 , 1 , 0 ,"$10 in 90 days"," $1.50 now"
8230_1_Y1,SetA, 106 ,59703.610,264.773,0.002,  0.000,  1.143,  1.549,   3 , 14 , 2 , 0 ," $3.50 now","$10 in 90 days"
8230_1_Y1,SetA, 107 ,0.000,0.000,0.000,  0.000,  0.000,  0.000,   0 , 6 , 0 , 0 ," $7.50 now","$10 now"
8230_1_Y1,SetA, 108 ,0.000,0.000,0.000,  0.000,  0.000,  0.000,   0 , 12 , 0 , 0 ," $4.50 now","$10 now"
8230_1_Y1,SetA, 109 ,59705.540,266.711,0.111,  0.000,  2.111,  2.501,   1 , 5 , 2 , 0 ," $8.00 now","$10 in 7 days"
8230_1_Y1,SetA, 110 ,59708.430,269.602,0.063,  0.720,  0.000,  3.251,   3 , 0 , 1 , 0 ," $10.50 now","$10 in 90 days"
8230_1_Y1,SetA, 111 ,59712.070,273.242,0.111,  0.000,  3.955,  4.626,   2 , 12 , 2 , 0 ," $4.50 now","$10 in 30 days"
8230_1_Y1,SetA, 112 ,59717.090,278.258,0.001,  0.000,  0.970,  1.517,   2 , 22 , 2 , 0 ," $0.00 now","$10 in 30 days"
8230_1_Y1,SetA, 113 ,0.000,0.000,0.000,  0.000,  0.000,  0.000,   4 , 21 , 0 , 0 ,"$10 in 180 days"," $0.25 now"
8230_1_Y1,SetA, 114 ,59719.000,280.164,0.111,  1.282,  0.000,  1.861,   4 , 8 , 1 , 0 ,"$10 in 180 days"," $6.50 now"
8230_1_Y1,SetA, 115 ,59721.250,282.414,0.001,  0.000,  1.361,  2.486,   2 , 6 , 2 , 0 ," $7.50 now","$10 in 30 days"
8230_1_Y1,SetA, 116 ,0.000,0.000,0.000,  0.000,  0.000,  0.000,   0 , 4 , 0 , 0 ," $8.50 now","$10 now"
8230_1_Y1,SetA, 117 ,0.000,0.000,0.000,  0.000,  0.000,  0.000,   5 , 6 , 0 , 0 ," $7.50 now","$10 in 365 days"
8230_1_Y1,SetA, 118 ,59724.120,285.289,0.064,  0.000,  1.001,  2.439,   0 , 3 , 2 , 0 ," $9.00 now","$10 now"
8230_1_Y1,SetA, 119 ,0.000,0.000,0.000,  0.000,  0.000,  0.000,   0 , 7 , 0 , 0 ," $7.00 now","$10 now"
8230_1_Y1,SetA, 120 ,59726.950,288.117,0.079,  4.626,  0.000,  5.079,   2 , 13 , 1 , 0 ,"$10 in 30 days"," $4.00 now"
8230_1_Y1,SetA, 121 ,0.000,0.000,0.000,  0.000,  0.000,  0.000,   0 , 22 , 0 , 0 ," $0.00 now","$10 now"
8230_1_Y1,SetA, 122 ,0.000,0.000,0.000,  0.000,  0.000,  0.000,   5 , 21 , 0 , 0 ,"$10 in 365 days"," $0.25 now"
8230_1_Y1,SetA, 123 ,0.000,0.000,0.000,  0.000,  0.000,  0.000,   5 , 8 , 0 , 0 ,"$10 in 365 days"," $6.50 now"
8230_1_Y1,SetA, 124 ,59732.420,293.586,0.110,  0.000,  1.329,  2.095,   2 , 7 , 2 , 0 ," $7.00 now","$10 in 30 days"
8230_1_Y1,SetA, 125 ,59734.900,296.070,0.001,  0.000,  1.298,  1.845,   2 , 1 , 2 , 0 ,"$10 in 30 days"," $10.00 now"
8230_1_Y1,SetA, 126 ,59737.140,298.305,0.001,  1.204,  0.000,  1.626,   4 , 18 , 1 , 0 ,"$10 in 180 days"," $1.50 now"
8230_1_Y1,SetA, 127 ,0.000,0.000,0.000,  0.000,  0.000,  0.000,   5 , 15 , 0 , 0 ," $3.00 now","$10 in 365 days"
8230_1_Y1,SetA, 128 ,59739.150,300.320,0.001,  0.000,  1.032,  1.454,   3 , 20 , 2 , 0 ," $0.50 now","$10 in 90 days"
8230_1_Y1,SetA, 129 ,0.000,0.000,0.000,  0.000,  0.000,  0.000,   0 , 9 , 0 , 0 ," $6.00 now","$10 now"
8230_1_Y1,SetA, 130 ,0.000,0.000,0.000,  0.000,  0.000,  0.000,   5 , 22 , 0 , 0 ," $0.00 now","$10 in 365 days"
8230_1_Y1,SetA, 131 ,0.000,0.000,0.000,  0.000,  0.000,  0.000,   0 , 20 , 0 , 0 ," $0.50 now","$10 now"
8230_1_Y1,SetA, 132 ,59741.000,302.164,0.110,  1.845,  0.000,  2.298,   3 , 16 , 1 , 0 ,"$10 in 90 days"," $2.50 now"
8230_1_Y1,SetA, 133 ,0.000,0.000,0.000,  0.000,  0.000,  0.000,   0 , 15 , 0 , 0 ," $3.00 now","$10 now"
8230_1_Y1,SetA, 134 ,59743.680,304.852,0.110,  0.000,  1.047,  1.422,   3 , 2 , 2 , 0 ," $9.50 now","$10 in 90 days"
8230_1_Y1,SetA, 135 ,59745.500,306.664,0.001,  0.000,  1.001,  1.532,   4 , 7 , 2 , 0 ," $7.00 now","$10 in 180 days"
8230_1_Y1,SetA, 136 ,59747.420,308.586,0.110,  0.000,  1.032,  1.594,   1 , 17 , 2 , 0 ," $2.00 now","$10 in 7 days"
8230_1_Y1,SetA, 137 ,59749.400,310.570,0.001,  0.548,  0.000,  2.376,   0 , 0 , 1 , 0 ," $10.50 now","$10 now"
8230_1_Y1,SetA, 138 ,59752.170,313.336,0.000,  0.000,  1.032,  1.547,   4 , 15 , 2 , 0 ," $3.00 now","$10 in 180 days"
Subject,Set,Trial,TOD,StartTr,RT,LRT,RRT,DRT,Standard,Variable,Choice,Group,LftText,RgtText
8230_1_Y1     04-02-2015    17:18:23,SetA
8230_1_Y1,SetA, 1 ,61892.330,0.000,0.000,  0.000,  49.095,  51.264,   1 , 17 , 2 , 0 ," $2.00 now","$10 in 7 days"
8230_1_Y1,SetA, 2 ,0.000,0.000,0.000,  0.000,  0.000,  0.000,   5 , 14 , 0 , 0 ,"$10 in 365 days"," $3.50 now"
8230_1_Y1,SetA, 3 ,61943.980,51.652,0.000,  7.724,  0.000,  8.847,   1 , 12 , 1 , 0 ,"$10 in 7 days"," $4.50 now"
8230_1_Y1,SetA, 4 ,61953.220,60.891,0.000,  7.782,  0.000,  8.547,   3 , 18 , 1 , 0 ,"$10 in 90 days"," $1.50 now"
8230_1_Y1,SetA, 5 ,61962.160,69.828,0.000,  0.000,  15.615,  16.707,   2 , 11 , 2 , 0 ," $5.00 now","$10 in 30 days"
8230_1_Y1,SetA, 6 ,0.000,0.000,0.000,  0.000,  0.000,  0.000,   0 , 21 , 0 , 0 ,"$10 now"," $0.25 now"
8230_1_Y1,SetA, 7 ,61979.250,86.926,0.000,  3.229,  0.000,  3.962,   1 , 22 , 1 , 0 ,"$10 in 7 days"," $0.00 now"
8230_1_Y1,SetA, 8 ,61983.610,91.277,0.000,  0.000,  2.668,  3.199,   2 , 20 , 2 , 0 ," $0.50 now","$10 in 30 days"
8230_1_Y1,SetA, 9 ,0.000,0.000,0.000,  0.000,  0.000,  0.000,   5 , 11 , 0 , 0 ," $5.00 now","$10 in 365 days"
8230_1_Y1,SetA, 10 ,61987.200,94.867,0.000,  0.000,  2.058,  2.713,   3 , 19 , 2 , 0 ," $1.00 now","$10 in 90 days"
8230_1_Y1,SetA, 11 ,61990.300,97.969,0.000,  0.000,  2.840,  3.636,   2 , 1 , 2 , 0 ,"$10 in 30 days"," $10.00 now"
8230_1_Y1,SetA, 12 ,61994.320,101.996,0.000,  3.415,  0.000,  4.102,   3 , 15 , 1 , 0 ,"$10 in 90 days"," $3.00 now"
8230_1_Y1,SetA, 13 ,61998.820,106.488,0.000,  3.947,  0.000,  4.446,   1 , 8 , 1 , 0 ,"$10 in 7 days"," $6.50 now"
8230_1_Y1,SetA, 14 ,0.000,0.000,0.000,  0.000,  0.000,  0.000,   5 , 21 , 0 , 0 ,"$10 in 365 days"," $0.25 now"
8230_1_Y1,SetA, 15 ,62003.650,111.324,0.000,  0.000,  6.661,  7.285,   3 , 9 , 2 , 0 ,"$10 in 90 days"," $6.00 now"
8230_1_Y1,SetA, 16 ,62011.330,119.000,0.000,  0.000,  3.057,  3.743,   1 , 5 , 2 , 0 ,"$10 in 7 days"," $8.00 now"
8230_1_Y1,SetA, 17 ,62015.460,123.133,0.000,  0.000,  2.574,  3.120,   2 , 2 , 2 , 0 ,"$10 in 30 days"," $9.50 now"
8230_1_Y1,SetA, 18 ,0.000,0.000,0.000,  0.000,  0.000,  0.000,   5 , 18 , 0 , 0 ,"$10 in 365 days"," $1.50 now"
8230_1_Y1,SetA, 19 ,62018.970,126.645,0.000,  0.000,  6.160,  6.737,   0 , 0 , 2 , 0 ,"$10 now"," $10.50 now"
8230_1_Y1,SetA, 20 ,62026.100,133.773,0.000,  0.000,  4.522,  5.177,   3 , 2 , 2 , 0 ,"$10 in 90 days"," $9.50 now"
8230_1_Y1,SetA, 21 ,62031.670,139.340,0.000,  2.887,  0.000,  3.496,   3 , 3 , 1 , 0 ," $9.00 now","$10 in 90 days"
8230_1_Y1,SetA, 22 ,62035.550,143.227,0.000,  2.526,  0.000,  3.041,   4 , 7 , 1 , 0 ," $7.00 now","$10 in 180 days"
8230_1_Y1,SetA, 23 ,62038.980,146.656,0.000,  0.000,  4.495,  5.056,   2 , 8 , 2 , 0 ,"$10 in 30 days"," $6.50 now"
8230_1_Y1,SetA, 24 ,0.000,0.000,0.000,  0.000,  0.000,  0.000,   5 , 15 , 0 , 0 ,"$10 in 365 days"," $3.00 now"
8230_1_Y1,SetA, 25 ,62044.430,152.102,0.000,  2.075,  0.000,  2.637,   3 , 22 , 1 , 0 ,"$10 in 90 days"," $0.00 now"
8230_1_Y1,SetA, 26 ,0.000,0.000,0.000,  0.000,  0.000,  0.000,   0 , 5 , 0 , 0 ,"$10 now"," $8.00 now"
8230_1_Y1,SetA, 27 ,62047.460,155.129,0.000,  4.570,  0.000,  5.085,   2 , 18 , 1 , 0 ,"$10 in 30 days"," $1.50 now"
8230_1_Y1,SetA, 28 ,0.000,0.000,0.000,  0.000,  0.000,  0.000,   0 , 1 , 0 , 0 ,"$10 now"," $10.00 now"
8230_1_Y1,SetA, 29 ,0.000,0.000,0.000,  0.000,  0.000,  0.000,   5 , 10 , 0 , 0 ,"$10 in 365 days"," $5.50 now"
8230_1_Y1,SetA, 30 ,0.000,0.000,0.000,  0.000,  0.000,  0.000,   0 , 15 , 0 , 0 ,"$10 now"," $3.00 now"
8230_1_Y1,SetA, 31 ,62052.930,160.606,0.000,  0.000,  2.744,  3.243,   1 , 19 , 2 , 0 ," $1.00 now","$10 in 7 days"
8230_1_Y1,SetA, 32 ,62056.570,164.238,0.000,  0.000,  2.201,  2.700,   1 , 13 , 2 , 0 ," $4.00 now","$10 in 7 days"
8230_1_Y1,SetA, 33 ,62059.660,167.328,0.000,  2.355,  0.000,  2.855,   3 , 7 , 1 , 0 ," $7.00 now","$10 in 90 days"
8230_1_Y1,SetA, 34 ,0.000,0.000,0.000,  0.000,  0.000,  0.000,   0 , 4 , 0 , 0 ,"$10 now"," $8.50 now"
8230_1_Y1,SetA, 35 ,62062.900,170.574,0.000,  4.803,  0.000,  5.318,   0 , 2 , 1 , 0 ,"$10 now"," $9.50 now"
8230_1_Y1,SetA, 36 ,62068.610,176.281,0.000,  0.000,  2.684,  3.262,   1 , 16 , 2 , 0 ," $2.50 now","$10 in 7 days"
8230_1_Y1,SetA, 37 ,0.000,0.000,0.000,  0.000,  0.000,  0.000,   0 , 22 , 0 , 0 ,"$10 now"," $0.00 now"
8230_1_Y1,SetA, 38 ,62072.260,179.934,0.000,  3.259,  0.000,  3.743,   2 , 14 , 1 , 0 ,"$10 in 30 days"," $3.50 now"
8230_1_Y1,SetA, 39 ,0.000,0.000,0.000,  0.000,  0.000,  0.000,   5 , 17 , 0 , 0 ," $2.00 now","$10 in 365 days"
8230_1_Y1,SetA, 40 ,62076.390,184.066,0.000,  0.000,  3.650,  4.134,   3 , 12 , 2 , 0 ,"$10 in 90 days"," $4.50 now"
8230_1_Y1,SetA, 41 ,62080.920,188.590,0.000,  2.278,  0.000,  3.479,   1 , 15 , 1 , 0 ,"$10 in 7 days"," $3.00 now"
8230_1_Y1,SetA, 42 ,62084.790,192.457,0.000,  0.000,  2.592,  3.044,   4 , 9 , 2 , 0 ,"$10 in 180 days"," $6.00 now"
8230_1_Y1,SetA, 43 ,62088.220,195.891,0.000,  3.604,  4.946,  11.981,   4 , 18 , 1 , 0 ,"$10 in 180 days"," $1.50 now"
8230_1_Y1,SetA, 44 ,0.000,0.000,0.000,  0.000,  0.000,  0.000,   3 , 21 , 0 , 0 ,"$10 in 90 days"," $0.25 now"
8230_1_Y1,SetA, 45 ,0.000,0.000,0.000,  0.000,  0.000,  0.000,   5 , 4 , 0 , 0 ,"$10 in 365 days"," $8.50 now"
8230_1_Y1,SetA, 46 ,0.000,0.000,0.000,  0.000,  0.000,  0.000,   0 , 10 , 0 , 0 ,"$10 now"," $5.50 now"
8230_1_Y1,SetA, 47 ,0.000,0.000,0.000,  0.000,  0.000,  0.000,   5 , 16 , 0 , 0 ," $2.50 now","$10 in 365 days"
8230_1_Y1,SetA, 48 ,62100.590,208.262,0.000,  2.808,  0.000,  3.151,   1 , 10 , 1 , 0 ,"$10 in 7 days"," $5.50 now"
8230_1_Y1,SetA, 49 ,0.000,0.000,0.000,  0.000,  0.000,  0.000,   0 , 9 , 0 , 0 ,"$10 now"," $6.00 now"
8230_1_Y1,SetA, 50 ,62104.130,211.805,0.000,  2.276,  0.000,  2.666,   4 , 6 , 1 , 0 ," $7.50 now","$10 in 180 days"
8230_1_Y1,SetA, 51 ,0.000,0.000,0.000,  0.000,  0.000,  0.000,   5 , 1 , 0 , 0 ,"$10 in 365 days"," $10.00 now"
8230_1_Y1,SetA, 52 ,62107.190,214.859,0.000,  0.000,  6.835,  7.256,   4 , 19 , 2 , 0 ," $1.00 now","$10 in 180 days"
8230_1_Y1,SetA, 53 ,62114.850,222.520,0.000,  12.605,  0.000,  13.214,   3 , 17 , 1 , 0 ," $2.00 now","$10 in 90 days"
8230_1_Y1,SetA, 54 ,62128.450,236.125,0.000,  0.000,  1.730,  2.370,   3 , 5 , 2 , 0 ,"$10 in 90 days"," $8.00 now"
8230_1_Y1,SetA, 55 ,62131.210,238.887,0.000,  0.000,  2.120,  2.603,   2 , 4 , 2 , 0 ,"$10 in 30 days"," $8.50 now"
8230_1_Y1,SetA, 56 ,62134.210,241.879,0.000,  0.000,  3.090,  3.527,   4 , 14 , 2 , 0 ,"$10 in 180 days"," $3.50 now"
8230_1_Y1,SetA, 57 ,62138.130,245.797,0.000,  0.000,  1.980,  2.432,   4 , 12 , 2 , 0 ,"$10 in 180 days"," $4.50 now"
8230_1_Y1,SetA, 58 ,62140.950,248.617,0.000,  1.937,  0.000,  2.358,   1 , 3 , 1 , 0 ," $9.00 now","$10 in 7 days"
8230_1_Y1,SetA, 59 ,0.000,0.000,0.000,  0.000,  0.000,  0.000,   0 , 12 , 0 , 0 ,"$10 now"," $4.50 now"
8230_1_Y1,SetA, 60 ,0.000,0.000,0.000,  0.000,  0.000,  0.000,   0 , 14 , 0 , 0 ,"$10 now"," $3.50 now"
8230_1_Y1,SetA, 61 ,0.000,0.000,0.000,  0.000,  0.000,  0.000,   5 , 6 , 0 , 0 ," $7.50 now","$10 in 365 days"
8230_1_Y1,SetA, 62 ,0.000,0.000,0.000,  0.000,  0.000,  0.000,   0 , 8 , 0 , 0 ,"$10 now"," $6.50 now"
8230_1_Y1,SetA, 63 ,0.000,0.000,0.000,  0.000,  0.000,  0.000,   0 , 18 , 0 , 0 ,"$10 now"," $1.50 now"
8230_1_Y1,SetA, 64 ,62143.690,251.363,0.000,  1.858,  0.000,  2.280,   4 , 22 , 1 , 0 ,"$10 in 180 days"," $0.00 now"
8230_1_Y1,SetA, 65 ,0.000,0.000,0.000,  0.000,  0.000,  0.000,   5 , 0 , 0 , 0 ,"$10 in 365 days"," $10.50 now"
8230_1_Y1,SetA, 66 ,62146.360,254.031,0.000,  0.000,  1.905,  2.310,   4 , 5 , 2 , 0 ,"$10 in 180 days"," $8.00 now"
8230_1_Y1,SetA, 67 ,62149.060,256.731,0.000,  0.000,  3.261,  3.666,   4 , 16 , 2 , 0 ," $2.50 now","$10 in 180 days"
8230_1_Y1,SetA, 68 ,62153.110,260.785,0.000,  1.204,  0.000,  1.640,   2 , 22 , 1 , 0 ,"$10 in 30 days"," $0.00 now"
8230_1_Y1,SetA, 69 ,62155.140,262.816,0.000,  2.962,  2.182,  4.554,   1 , 9 , 1 , 0 ,"$10 in 7 days"," $6.00 now"
8230_1_Y1,SetA, 70 ,62160.090,267.762,0.000,  0.000,  1.824,  2.261,   1 , 20 , 2 , 0 ," $0.50 now","$10 in 7 days"
8230_1_Y1,SetA, 71 ,62162.740,270.414,2.027,  0.000,  2.432,  2.807,   1 , 4 , 2 , 0 ,"$10 in 7 days"," $8.50 now"
8230_1_Y1,SetA, 72 ,62165.940,273.609,0.000,  0.000,  1.577,  1.998,   2 , 19 , 2 , 0 ," $1.00 now","$10 in 30 days"
8230_1_Y1,SetA, 73 ,62168.320,275.996,0.000,  1.483,  0.000,  1.936,   2 , 10 , 1 , 0 ,"$10 in 30 days"," $5.50 now"
8230_1_Y1,SetA, 74 ,62170.650,278.320,0.000,  0.000,  1.967,  2.529,   4 , 0 , 2 , 0 ,"$10 in 180 days"," $10.50 now"
8230_1_Y1,SetA, 75 ,62173.570,281.238,0.000,  3.324,  0.000,  3.745,   1 , 6 , 1 , 0 ," $7.50 now","$10 in 7 days"
8230_1_Y1,SetA, 76 ,0.000,0.000,0.000,  0.000,  0.000,  0.000,   1 , 21 , 0 , 0 ,"$10 in 7 days"," $0.25 now"
8230_1_Y1,SetA, 77 ,0.000,0.000,0.000,  0.000,  0.000,  0.000,   0 , 19 , 0 , 0 ," $1.00 now","$10 now"
8230_1_Y1,SetA, 78 ,0.000,0.000,0.000,  0.000,  0.000,  0.000,   5 , 7 , 0 , 0 ," $7.00 now","$10 in 365 days"
8230_1_Y1,SetA, 79 ,0.000,0.000,0.000,  0.000,  0.000,  0.000,   5 , 13 , 0 , 0 ," $4.00 now","$10 in 365 days"
8230_1_Y1,SetA, 80 ,62177.700,285.371,0.000,  3.699,  0.000,  4.230,   2 , 7 , 1 , 0 ," $7.00 now","$10 in 30 days"
8230_1_Y1,SetA, 81 ,62182.320,289.992,0.000,  0.000,  2.120,  2.682,   1 , 11 , 2 , 0 ," $5.00 now","$10 in 7 days"
8230_1_Y1,SetA, 82 ,62185.390,293.063,0.000,  0.000,  2.232,  3.074,   1 , 7 , 2 , 0 ," $7.00 now","$10 in 7 days"
8230_1_Y1,SetA, 83 ,62188.860,296.527,0.000,  0.000,  1.295,  1.950,   3 , 0 , 2 , 0 ,"$10 in 90 days"," $10.50 now"
8230_1_Y1,SetA, 84 ,62191.200,298.867,0.000,  2.309,  0.000,  2.808,   2 , 15 , 1 , 0 ,"$10 in 30 days"," $3.00 now"
8230_1_Y1,SetA, 85 ,62194.390,302.066,0.000,  0.000,  3.695,  4.148,   3 , 8 , 2 , 0 ,"$10 in 90 days"," $6.50 now"
8230_1_Y1,SetA, 86 ,62198.930,306.606,0.000,  0.000,  1.496,  2.448,   3 , 1 , 2 , 0 ,"$10 in 90 days"," $10.00 now"
8230_1_Y1,SetA, 87 ,62201.770,309.445,0.000,  0.000,  2.089,  2.557,   3 , 10 , 2 , 0 ,"$10 in 90 days"," $5.50 now"
8230_1_Y1,SetA, 88 ,0.000,0.000,0.000,  0.000,  0.000,  0.000,   0 , 7 , 0 , 0 ," $7.00 now","$10 now"
8230_1_Y1,SetA, 89 ,62204.720,312.391,0.000,  0.610,  0.000,  2.450,   2 , 3 , 1 , 0 ," $9.00 now","$10 in 30 days"
8230_1_Y1,SetA, 90 ,62207.560,315.231,0.000,  1.732,  0.000,  2.169,   1 , 14 , 1 , 0 ,"$10 in 7 days"," $3.50 now"
8230_1_Y1,SetA, 91 ,0.000,0.000,0.000,  0.000,  0.000,  0.000,   0 , 16 , 0 , 0 ," $2.50 now","$10 now"
8230_1_Y1,SetA, 92 ,0.000,0.000,0.000,  0.000,  0.000,  0.000,   5 , 22 , 0 , 0 ,"$10 in 365 days"," $0.00 now"
8230_1_Y1,SetA, 93 ,62210.120,317.789,0.000,  3.012,  0.000,  3.433,   2 , 17 , 1 , 0 ," $2.00 now","$10 in 30 days"
8230_1_Y1,SetA, 94 ,0.000,0.000,0.000,  0.000,  0.000,  0.000,   5 , 8 , 0 , 0 ,"$10 in 365 days"," $6.50 now"
8230_1_Y1,SetA, 95 ,0.000,0.000,0.000,  0.000,  0.000,  0.000,   0 , 11 , 0 , 0 ," $5.00 now","$10 now"
8230_1_Y1,SetA, 96 ,62213.940,321.613,0.000,  0.000,  2.042,  3.134,   4 , 10 , 2 , 0 ,"$10 in 180 days"," $5.50 now"
8230_1_Y1,SetA, 97 ,0.000,0.000,0.000,  0.000,  0.000,  0.000,   5 , 20 , 0 , 0 ," $0.50 now","$10 in 365 days"
8230_1_Y1,SetA, 98 ,62217.460,325.137,0.000,  1.217,  0.000,  4.634,   2 , 9 , 1 , 0 ,"$10 in 30 days"," $6.00 now"
8230_1_Y1,SetA, 99 ,0.000,0.000,0.000,  0.000,  0.000,  0.000,   5 , 9 , 0 , 0 ,"$10 in 365 days"," $6.00 now"
8230_1_Y1,SetA, 100 ,0.000,0.000,0.000,  0.000,  0.000,  0.000,   4 , 21 , 0 , 0 ,"$10 in 180 days"," $0.25 now"
8230_1_Y1,SetA, 101 ,62222.500,330.176,0.000,  1.123,  0.000,  1.669,   3 , 11 , 1 , 0 ," $5.00 now","$10 in 90 days"
8230_1_Y1,SetA, 102 ,62224.560,332.234,0.000,  0.000,  1.374,  1.905,   4 , 1 , 2 , 0 ,"$10 in 180 days"," $10.00 now"
8230_1_Y1,SetA, 103 ,0.000,0.000,0.000,  0.000,  0.000,  0.000,   0 , 6 , 0 , 0 ," $7.50 now","$10 now"
8230_1_Y1,SetA, 104 ,62226.860,334.527,0.000,  2.841,  0.000,  3.262,   3 , 16 , 1 , 0 ," $2.50 now","$10 in 90 days"
8230_1_Y1,SetA, 105 ,0.000,0.000,0.000,  0.000,  0.000,  0.000,   2 , 21 , 0 , 0 ,"$10 in 30 days"," $0.25 now"
8230_1_Y1,SetA, 106 ,62230.510,338.180,0.000,  1.996,  0.000,  2.355,   2 , 16 , 1 , 0 ," $2.50 now","$10 in 30 days"
8230_1_Y1,SetA, 107 ,62233.250,340.926,0.000,  1.371,  0.000,  1.839,   4 , 3 , 1 , 0 ," $9.00 now","$10 in 180 days"
8230_1_Y1,SetA, 108 ,62235.480,343.156,0.000,  1.825,  0.000,  2.261,   4 , 13 , 1 , 0 ," $4.00 now","$10 in 180 days"
8230_1_Y1,SetA, 109 ,62238.140,345.809,0.000,  0.000,  1.496,  2.635,   3 , 4 , 2 , 0 ,"$10 in 90 days"," $8.50 now"
8230_1_Y1,SetA, 110 ,62241.160,348.832,0.000,  0.000,  1.421,  1.952,   4 , 4 , 2 , 0 ,"$10 in 180 days"," $8.50 now"
8230_1_Y1,SetA, 111 ,62243.500,351.176,0.000,  0.000,  2.400,  2.977,   4 , 15 , 2 , 0 ,"$10 in 180 days"," $3.00 now"
8230_1_Y1,SetA, 112 ,62246.870,354.543,0.000,  1.139,  1.841,  2.949,   3 , 14 , 2 , 0 ,"$10 in 90 days"," $3.50 now"
8230_1_Y1,SetA, 113 ,62250.210,357.883,1.715,  0.000,  2.027,  2.978,   1 , 2 , 2 , 0 ,"$10 in 7 days"," $9.50 now"
8230_1_Y1,SetA, 114 ,0.000,0.000,0.000,  0.000,  0.000,  0.000,   5 , 19 , 0 , 0 ," $1.00 now","$10 in 365 days"
8230_1_Y1,SetA, 115 ,62253.580,361.250,0.000,  1.671,  0.000,  2.061,   4 , 11 , 1 , 0 ," $5.00 now","$10 in 180 days"
8230_1_Y1,SetA, 116 ,0.000,0.000,0.000,  0.000,  0.000,  0.000,   0 , 17 , 0 , 0 ," $2.00 now","$10 now"
8230_1_Y1,SetA, 117 ,62256.030,363.699,0.000,  1.858,  0.000,  3.512,   2 , 13 , 1 , 0 ," $4.00 now","$10 in 30 days"
8230_1_Y1,SetA, 118 ,0.000,0.000,0.000,  0.000,  0.000,  0.000,   5 , 5 , 0 , 0 ,"$10 in 365 days"," $8.00 now"
8230_1_Y1,SetA, 119 ,62259.950,367.617,0.000,  0.000,  1.481,  1.887,   2 , 5 , 2 , 0 ,"$10 in 30 days"," $8.00 now"
8230_1_Y1,SetA, 120 ,62262.220,369.895,0.000,  0.000,  1.855,  2.230,   4 , 20 , 2 , 0 ," $0.50 now","$10 in 180 days"
8230_1_Y1,SetA, 121 ,62264.840,372.516,0.000,  0.000,  1.418,  1.839,   1 , 1 , 2 , 0 ,"$10 in 7 days"," $10.00 now"
8230_1_Y1,SetA, 122 ,62267.070,374.746,0.000,  0.000,  1.778,  2.433,   2 , 0 , 2 , 0 ,"$10 in 30 days"," $10.50 now"
8230_1_Y1,SetA, 123 ,62269.900,377.570,0.000,  1.419,  0.000,  2.401,   3 , 13 , 1 , 0 ," $4.00 now","$10 in 90 days"
8230_1_Y1,SetA, 124 ,62272.690,380.359,0.000,  2.436,  0.000,  2.873,   3 , 6 , 1 , 0 ," $7.50 now","$10 in 90 days"
8230_1_Y1,SetA, 125 ,62275.950,383.621,0.000,  0.000,  3.027,  3.870,   2 , 12 , 2 , 0 ,"$10 in 30 days"," $4.50 now"
8230_1_Y1,SetA, 126 ,0.000,0.000,0.000,  0.000,  0.000,  0.000,   5 , 12 , 0 , 0 ,"$10 in 365 days"," $4.50 now"
8230_1_Y1,SetA, 127 ,62280.210,387.883,0.000,  0.000,  0.934,  1.979,   1 , 0 , 2 , 0 ,"$10 in 7 days"," $10.50 now"
8230_1_Y1,SetA, 128 ,62282.580,390.250,0.000,  0.000,  2.264,  2.872,   4 , 2 , 2 , 0 ,"$10 in 180 days"," $9.50 now"
8230_1_Y1,SetA, 129 ,0.000,0.000,0.000,  0.000,  0.000,  0.000,   5 , 2 , 0 , 0 ,"$10 in 365 days"," $9.50 now"
8230_1_Y1,SetA, 130 ,62285.840,393.512,0.000,  0.000,  1.654,  2.184,   4 , 8 , 2 , 0 ,"$10 in 180 days"," $6.50 now"
8230_1_Y1,SetA, 131 ,62288.410,396.086,0.000,  2.481,  0.000,  3.666,   2 , 6 , 1 , 0 ," $7.50 now","$10 in 30 days"
8230_1_Y1,SetA, 132 ,0.000,0.000,0.000,  0.000,  0.000,  0.000,   0 , 20 , 0 , 0 ," $0.50 now","$10 now"
8230_1_Y1,SetA, 133 ,62292.470,400.141,0.000,  1.031,  0.000,  1.514,   4 , 17 , 1 , 0 ," $2.00 now","$10 in 180 days"
8230_1_Y1,SetA, 134 ,62294.370,402.043,0.000,  3.310,  0.000,  3.715,   1 , 18 , 1 , 0 ,"$10 in 7 days"," $1.50 now"
8230_1_Y1,SetA, 135 ,62298.480,406.148,0.000,  0.000,  1.388,  1.918,   0 , 3 , 2 , 0 ," $9.00 now","$10 now"
8230_1_Y1,SetA, 136 ,0.000,0.000,0.000,  0.000,  0.000,  0.000,   0 , 13 , 0 , 0 ," $4.00 now","$10 now"
8230_1_Y1,SetA, 137 ,0.000,0.000,0.000,  0.000,  0.000,  0.000,   5 , 3 , 0 , 0 ," $9.00 now","$10 in 365 days"
8230_1_Y1,SetA, 138 ,62300.790,408.457,0.000,  2.309,  0.000,  2.714,   3 , 20 , 1 , 0 ," $0.50 now","$10 in 90 days"
